# Sample IMU log for Sensor Log Analyzer

# Columns: t_ms, ax, ay, az, gx, gy, gz

t_ms,ax,ay,az,gx,gy,gz
11,0.007173217663256161,0.02528227097803544,1.0001759310558358,0.15083713024583756,1.2625326486529271,0.14796324429741756
22,0.006230679104364718,0.022665626407902338,1.006901729991646,0.10860769409385838,0.9526735839929846,-0.0011703559568262544
31,0.0008266484726150512,0.012296782072633884,0.9904453012333331,0.22194050429068435,0.9269860698821535,0.29786814309011206
40,0.0017266038855345781,0.015502317116771146,1.0140489670396846,0.5658900316389099,0.9511242879962725,0.05662467995305377
49,0.0009913449343058232,0.023289855993583335,0.9997284266778316,0.24265670807945255,0.8952606915178145,0.01953437958890811
59,0.008341317971405297,0.021593492271733492,0.9856205419595643,-0.08060488127548945,0.9087007859862037,0.07488707125708931
68,0.008821239724779554,0.02050957240309325,0.9990010088739588,0.3328510076825994,1.0007262195862043,0.06881512873628882
78,-0.002934996709746022,0.02206268960155523,1.0048877411888044,0.4505184162269589,0.8382666180307415,-0.20461058477502525
89,0.0028740940445307547,0.013631951945227622,1.007684735154697,0.6153730195620633,1.0853383221773893,0.12537260189515098
100,0.006454428016982882,0.015640456230337454,0.9923046631001787,0.6765602757811446,1.3288268012025277,0.09591609300628802
110,0.007013851376475136,0.019747213192198916,1.0110615220838355,0.2729635353669636,0.9482065089813042,-0.10161716977340672
120,0.0004457863840222273,0.025183560423632418,0.9924157169798427,0.48339515475679085,0.9767783883928329,0.19252952166879664
130,0.009838380724812098,0.012863804509896534,0.9917954875018392,0.383951055401629,1.075511160956889,-0.0013752717738857397
140,0.011930545354416682,0.018701305906704747,1.010847411134536,0.6930177509308183,1.0157941013922793,-0.15164164551679676
149,0.006184423281386829,0.022042027659090725,0.9925427131316178,0.5762672512142548,0.504508997462074,-0.11764372359754656
160,0.010559959308472623,0.009784308709096013,0.9923328913503332,0.5478526245620707,0.8876843252050357,-0.05649352929787527
170,0.01279580440966365,0.01721176871181832,0.9972176705037286,0.30439595229948857,1.2763423012298123,-0.044657147285746206
181,0.021872113551712452,0.011193474335358881,0.9957219496526372,0.928179885453535,0.84596024400251,-0.05463772137914102
190,0.005359820875972298,0.01399463011849958,0.9996678846263506,0.684725278758523,0.9108436223326618,0.026579269507614148
200,0.0211755692701542,0.00920142535695214,0.9987786065647813,0.7837674387091251,1.2702051776770948,-0.25213739070314456
209,0.013795715450860915,0.006198692918914736,1.012217464346719,0.7145547223724531,1.1205689520718134,0.1564881741932244
220,0.01852797847054361,0.02013267946863536,0.9797546511485861,0.46340676857514007,1.20740091672862,-0.10871077709739677
231,0.017266109988383287,0.018478013454816394,1.014481016868281,0.8100669693913399,0.67171383398695,0.06867755992373098
240,0.01640776625380158,0.01575287018105498,1.012595570688223,0.8804520709857041,0.8665821896516998,-0.00950654927936613
251,0.014422653651327586,0.01075349374438281,1.0164193621622393,0.6587771436121812,1.0097098437141014,0.047628239851205324
262,0.01113023974912791,0.013415131843635884,0.9965520667065637,0.5057309126185121,0.7333750467696578,-0.05157118117216458
272,0.018862677394202762,0.00928742938823959,1.008710863810424,1.064703011424617,0.6566467969011391,0.07773276660318042
283,0.0249669099053349,0.01417190991335971,0.997853343305677,0.9186993184559205,0.7950421148645981,-0.2668465277297081
292,0.01842678927009514,0.01449873431760828,0.9900721584928864,1.066737258225934,0.8072125925407034,0.11190379864298929
301,0.00935810628245388,0.014226307779092541,0.9969375498021879,1.0051592654891293,1.204522475321719,-0.001285972689119115
310,0.0276113000554603,0.005902195826732619,1.0057878569144205,1.249040926166074,0.8596057946611259,0.1479495223606772
319,0.019305070105746096,0.010001566788867367,0.9823548878285302,1.363792489368273,0.8391738838380594,-0.11994831360978152
330,0.03519901250974973,0.0047232765129801004,0.9850470022689174,0.9925197663025397,0.8844899169618863,0.10400100600919443
339,0.014047825595389819,0.0055503646386056964,0.9999563570718094,1.055824515022499,0.5746860799149881,-0.08948261081514208
350,0.026699835056379854,0.01849711428027933,1.0056168663878478,1.2131757159139411,0.5168010536873426,-0.12648643109512578
359,0.010013949804474257,0.014083318053615571,0.988087942154974,1.061140783010519,0.8332809143409204,0.015331818817021661
370,0.014657049427129289,0.0035697384109444085,1.0061989712232045,1.144008568856937,0.7073280419426824,-0.1082887144425423
380,0.02487449206133225,0.011265584548862482,0.9778243170693915,1.3422802254239095,0.7499983265889173,-0.008063362620209857
391,0.036650882419007755,0.005124002894393042,1.006203496510288,1.3051716409207568,0.6651284202601482,0.34742570216572755
400,0.02347725187663071,0.0014011786280919759,1.0103757049401996,1.5791867273026075,0.6175393446147293,-0.19758779682201547
411,0.012645193074950933,0.002646508860300497,0.9781785331938497,1.1281205301935797,1.0072136120828237,0.18645983293566767
421,0.021652383536435404,0.004911801794063244,0.9924676273025872,1.2506520601477373,0.4144524920396772,-0.1460012269681917
430,0.016031310115437084,-0.006303744219200942,0.99239941705621,1.3142169499912237,0.706561501454093,-0.02642466316365431
441,0.016058675740850677,0.003871533789515016,1.0171687058754768,1.3461588767443116,0.534081671724629,-0.08871708036343959
452,0.012136418424525291,0.004076401529975786,0.9954811911354293,1.3202387822148245,0.9069093511165114,-0.0778047559607316
461,0.010159583999500003,-0.001997573860752762,0.9950821669925244,1.3145639739147716,0.7237632966823326,0.0924499961743963
470,0.02181582331841095,-0.0019544661266439308,№;"4",1.477187716189386,0.6678945584934067,-0.3058727014551923
480,0.027000032116609504,-0.0019454188184631971,1.0065653294679093,1.3319464241778907,0.7609689904523071,0.22942244825966635
489,0.01935784893426508,-0.0019429415895439715,0.9992423177192588,1.2308524542289834,0.8852698247792292,-0.11373025605617769
500,0.01965328912381674,-0.0055701704986144155,1.0011129547997024,1.3304380061223067,0.8150010831218707,-0.21349295822753617
509,0.021362614921498966,0.00812699328945039,0.989137444404816,1.7341319186999355,0.6231643270422308,-0.07705188186675425
520,0.01902274333308238,0.0009421280363198226,1.0171851488313384,1.0522727881333545,0.4540899576317343,0.21126115025964354
530,0.012931088663052974,-0.012595761770696833,0.9988452457479485,1.496215964367551,0.6003176361038349,-0.08147008188312421
541,0.020402349743631653,-0.005524994253479415,1.0082958729711853,1.5988785591301626,0.4462415469472633,-0.1289665860639881
552,0.01854198841749879,-0.00556440769696204,1.0052413320278815,1.3961197547910933,0.6558225490744943,0.04419727603401876
563,0.021086386453781435,-0.008825153798308144,0.9968578821436876,1.1569058212157668,0.33923255718340123,-0.1253731050633267
572,0.025756236801402987,-0.010146756095141339,0.989445099582452,1.278896194289983,0.7181866349467886,0.22710068585783433
583,0.012615633038034807,-0.002507873184749495,0.9931531195595744,1.5867527119858937,0.5394085454484703,0.11236767483014629
593,0.009156215955419754,-0.01758597344797358,0.9936706486135815,1.3818251842997291,0.36992765907840314,-0.0012680816320653884
603,0.015504268830567644,-7.929342514655796e-07,0.9930875269616746,1.3874282194705914,0.07649706137240009,0.08050606728614099
614,0.002057476725008365,-0.007358429449531333,1.0017390961970993,1.3821337893696508,0.5435074936865543,0.09171606355391362
625,0.01034845237524392,-0.011315901700697142,1.0069869382504624,1.4564777790780865,0.18098018378061564,0.2525355999243679
634,0.015088139085923453,-0.00975338299917059,0.9807672666035259,1.5604342635893294,0.48382043984347733,0.06856077488229255
645,0.0035740193015020814,-0.014590557904836293,0.9924654482501993,1.6332765864903367,0.46019713758240066,0.1830468548194559
654,0.01065869908369652,-0.014902503573838752,1.005145475576493,1.2059719843404877,0.010731416845673636,0.04230704381076609
663,0.0007492300665813533,-0.009502290583646206,0.9852916863255157,0.9780512295556685,-0.16180782951697167,-0.20726528335625588
673,0.0026365952249802456,-0.01764126420719804,0.9811653995889021,1.4793389616130213,-0.18455750837528054,-0.09479687917745676
684,0.011416072420461922,-0.01720477811944879,1.0002136737702012,1.1027112520235525,0.14218445571036203,0.25629989802191827
694,0.00434838050067328,-0.016387104500586763,1.0072504222113123,1.556581863416878,0.15790181376275841,0.13044108300050783
705,0.0088220500577072,-0.01266776288995761,0.995727526214611,1.5497508741940087,0.20660132377252546,0.15132806874574514
715,0.0005584527303132761,-0.01589207948818145,1.002796941698412,1.6660858863495556,0.3592878563213084,-0.11184568545105314
726,0.014939318327558236,-0.013753043403658814,0.9898780625362072,1.3512390445945397,0.2761834218701113,-0.044477785726964716
736,0.01142007946443074,-0.025305144585822323,0.985510097026015,1.6076209347272734,-0.16196914231092047,-0.05829560303505325
745,-0.0007633972873489717,-0.015526192117826918,0.9901163987734573,1.4545142964336988,-0.09387398528367924,-0.23423109541765416
756,0.005201989760732684,-0.011427465277214912,1.0097025707703282,1.6247959585924718,0.25607754847103,0.025316826293232012
767,0.0003821187063465933,-0.018463759727847584,0.9819051287654378,1.5849116895155024,0.1013639808026295,0.10589419369363778
777,0.001733013118237256,-0.012713783269627365,1.0006883232560277,1.202781198758844,0.021565207943472327,-0.2832623087309163
787,0.0027384732814033762,-0.02222704216968356,0.9999799475946228,1.3180944282051572,0.1328594927715587,-0.03180162750529065
796,0.0005681719107041435,-0.02478601696816001,1.000650134083465,0.8813760557485537,-0.008505288595503275,0.028911851161860284
805,-0.0011592297407797304,-0.01228713363412634,1.0182873532465593,1.676001200067096,-0.18938848163292327,0.025154141659863186
815,0.0010134686091680107,-0.012277411010800283,0.9999357160872581,1.2409460106686112,0.159011912063763,-0.35174434335232363
824,-0.013195962211785112,-0.023915638092251022,0.9805849134755952,1.1237566440242681,-0.41471693718761393,0.2522176744109424
833,0.003017024903496142,-0.015163289965134696,0.9967681709496472,1.2413832069920363,-0.040186202356418836,-0.2894213179892255
844,-0.0015965192532878636,-0.02731316300895086,0.9973488974108443,1.2638622550063001,-0.4051133811549995,-0.04510651253608957
853,-0.009907550764654873,-0.019288043372987923,1.0108864470978676,0.9681586225321452,0.2663536108547138,0.23500626134943695
864,-0.0018751228009646582,-0.02281381474099691,1.0035636540839512,1.3491546996495405,-0.4438375966816738,-0.029624865134026353
875,-0.004793240015945071,-0.02530044053449162,0.9893621456316111,1.2458237785421797,-0.19705157160306044,-0.1177465930803236
884,-0.006651024863469999,-0.021482140003592425,1.0055027249575579,1.102611007532502,-0.46378960675685177,0.045292165468291054
894,-0.011433619130228197,-0.014740046419182435,0.9947494448209998,1.3871624222812171,-0.3101393339753954,0.09171446574628192
904,-0.0034603573561878924,-0.02514428298131876,0.999765295465086,1.1858106285510788,-0.15483383767825382,-0.020344430164439053
915,-0.015205593266997754,-0.016386295631215707,1.0006908608257608,1.3579526249807725,-0.3080980284229741,-0.15888670581628428
924,-0.007577525168896028,-0.018008734515721932,0.9969417144483884,0.948804521167573,-0.47103938284336716,-0.0832740891689176
935,-0.020640769632109132,-0.005965680585494614,0.9911507555647876,1.0223183256393227,-0.45873819897165957,0.036784043172937805
944,-0.009479197872698025,-0.017751160995181453,1.0090557150587034,1.2257427794500089,-0.3021182485812033,-0.09570712896657284
953,-0.012713885314313007,-0.024000166598190993,0.985707737729212,0.8520313369532443,-0.789603099814847,-0.24051532798008707
962,-0.014337574205285104,-0.015424907054283257,0.9949390388546323,1.3047036105948213,-0.3031702577063933,0.03269541631876466
971,-0.02082194127116374,-0.022453357188639476,1.014127420651431,1.2695263324997208,-0.7681606823448017,0.01744547028002368
982,-0.015378269427689828,-0.014251761769376418,0.9859988407810699,1.3878082991021372,-0.3893446129345979,0.298346671986787
991,-0.012440753081632287,-0.02428805564491563,1.0125916902969887,1.0510090423347598,-0.2924091996490994,0.028181773696467863
1002,-0.013237177325734723,-0.020270626757712237,1.000145258766897,1.1472670250568613,-0.6525992503355901,0.10153534977677237
1013,-0.014869878124980876,-0.013440685485600685,0.9897047352861231,0.9243528827214711,-0.05212627149361326,-0.3505743626481869
1023,-0.01787410931735215,-0.020020519546309384,1.0044289978997725,0.8044850880316687,-0.4351100382134947,-0.20956307509638963
1033,-0.01828446256413953,-0.021568424567641502,1.0018196725856867,0.8657546516370529,-0.2563805170912393,0.00275950188197226
1044,-0.018456351448117178,-0.018623628946250807,0.9980668078930468,0.9187523417669037,-0.4456066236511922,-0.04450593401555387
1053,-0.009730651860644335,-0.022708748317522714,0.9896004503024401,0.5229350845718264,-0.3175787171437557,-0.06389522267557174
1064,-0.01750533729223012,-0.015576801162183409,0.9994567817856598,0.805041576476007,-0.19866491070367243,0.0973858992521414
1075,-0.018365813387654667,-0.02456898150615983,0.9987620003877293,0.7580225446779454,-0.663955456892511,-0.21561918715693415
1085,-0.024463630988720314,-0.01780248685867778,1.0024956316994085,0.6516892543822489,-0.7245657635302795,0.05480868480150345
1095,-0.015347479933325877,-0.01688707646777426,0.9909110998298014,0.23687233606601604,-0.6153550610851735,-0.0159860603264973
1106,-0.016331481241785586,-0.02300516184283732,1.0005106284889338,0.4279219184085281,-0.8127406282590132,-0.01926722351643833
1116,-0.016617748217321326,-0.010717652318987669,0.9922945891244684,0.34226465858214156,-0.45867454552215947,0.07524399425350004
1126,-0.020582166143670488,-0.014253016403594013,1.005473740914587,0.655723647254381,-0.9244225246123098,0.0062939291347126145
1136,-0.01725969970586138,-0.02180323568538238,0.9916571380321684,0.4942365212390113,-0.8806666248386734,0.35618679795474006
1146,-0.013666492944272843,-0.022576632578127965,1.0201755329999735,0.4125374920955368,-0.7251629498016783,0.011850569435837534
1157,-0.025357529435843185,-0.0086861115174546,0.988084686701032,0.1302536195718928,-0.6040195023463782,0.18134928376438317
1167,-0.027142552793267515,-0.011721199060699846,1.019441647540411,0.7050834230723023,-0.805881792356616,-0.07010915553349065
1176,-0.0203083705117968,-0.0134706451334378,0.9940248769475696,0.3783170751078306,-0.6508105797390273,-0.06180550904520076
1185,-0.021725373131504404,-0.016127500948143515,1.0075752376473317,0.19897353098607376,-0.7741110335925869,-0.14938773428262117
1195,-0.016245694017878416,-0.013786028855717407,0.9906688797441363,0.16794375882861606,-0.5204556613847959,-0.08425302154510035
1204,-0.017252356912892217,-0.015902004191688367,1.0025753689172408,-0.0037558613464769852,-0.5246902480553067,-0.07169882653237282
1213,-0.020668077708715454,-0.008283442665377016,0.9684545685387562,-0.2202473726584527,-0.8679078133366978,0.005534256041398066
1224,-0.024137218999347704,-0.011379923003741802,1.0007862691258247,-0.0717477799918358,-0.4006547605113694,-0.12398490641678857
1235,-0.019138853627046096,-0.006320839002298074,1.0063555929724313,-0.08063605000926488,-0.8768596600727363,0.15443355575495546
1245,-0.02485797960052645,-0.005820370411210488,1.0120924712565038,-0.46411915113430047,-0.8500295878186299,0.0012091074674161707
1256,-0.014651388158324728,-0.011006793071117632,1.0155969289822504,0.2301192704954836,-0.45235786442063086,0.1931997680695271
1265,-0.019688619965753867,-0.014572679810774713,0.9967385474438654,-0.12705726959267036,-1.3367325267691683,0.07539952904296006
1275,-0.022113934528743398,-0.012441547643739129,1.007813099702004,0.017472519555413846,-0.9430876162348371,-0.16473397072657697
1285,-0.025504790465127124,-0.015792923474261707,0.9875558640231116,-0.08738836672217712,-0.9492802464013806,-0.07383018124321504
1296,-0.0026381789662583456,-0.015877408534150983,0.9997832524670521,-0.36070378882441984,-0.6217872659234173,0.12327569666302271
1305,-0.024696087504357186,-0.004423667281508073,1.0025207927605109,-0.2159167945573968,-0.8143520824295842,-0.11978697835909677
1315,-0.020467660590769144,-0.004884563883564976,0.987119103995863,-0.059217064758469884,-0.8191742601333438,0.08421908723933563
1326,-0.011814691535990155,-0.010807990406330304,1.0012720913577777,0.18226137462094244,-0.74414009764553,0.13058443261611952
1336,-0.023316924097185568,-0.0032603781021678362,1.0090067287241005,-0.4284346081586088,-0.9506785410483637,0.18341427405768918
1345,-0.020005158849863956,-0.002892844780609875,0.9878329419770738,-0.47794301625729974,-1.0346541963297717,0.05210620866614827
1355,-0.013652573805267201,0.0007894217394131334,0.992682022786899,-0.3496552220135935,-1.1436119403567875,-0.08566595600086784
1366,-0.018483820822970717,0.010088113915480557,0.9956326191889123,-0.5393328748181494,-1.1958748780254578,-0.09186978593771407
1377,-0.003159529871695722,-0.004255819226362771,0.9994263298971503,-0.8226969306993646,-0.642341055502896,-0.1485587981052124
1386,-0.017118678323914775,-0.004748992318607974,0.9908959917652647,-0.6875098706218264,-1.0725737551365928,-0.21538867117291968
1397,-0.01395201328648938,-0.0035738114827145277,1.0115143303798424,-0.3545022520659603,-0.5983606372563259,0.06483564692630511
1406,-0.019373963501011268,-0.004406309936777571,1.007057511184049,-0.45744246258917676,-0.9481417111012894,-0.09321740340857736
1415,-0.009347128516876415,-0.00987197810187232,0.9921458803875293,-0.40221680775434,-0.968764635478865,0.08904501112612224
1425,-0.006919362344635725,-9.896632635169624e-05,1.012395755449867,-0.8755698900920859,-1.035363716537031,0.011732361243213816
1434,-0.005284670184291884,-0.004827962693193988,1.0259439094551324,-0.7092705568222992,-0.8986198517315569,-0.13480864029974488
1444,-0.0035368455553617993,0.0025570882650046696,0.9856507843137127,-0.5934034180564419,-1.0922957316419433,-0.17561576930463857
1455,-0.006707993449396144,0.00186613494071212,1.000228456721598,-0.6689500816042946,-0.7815089452651363,-0.12805058808294556
1466,-0.007816994009822354,0.005245754433020082,1.0098081607634373,-1.141686464865535,-1.0441056864108158,0.1454791419153798
1475,-0.00615605631219188,0.00444424754770923,1.004966965044599,-0.7813332147325542,-0.9580161169454716,0.18544230259826724
1485,-0.013866263703429898,0.006847084932647318,0.998959022981588,-1.2933252512915097,-1.2730450579140733,0.12018265475833173
1494,-0.0005638711375550286,0.00047934238220834983,1.0069415576678904,-1.0779958978803228,-0.8379401653027798,-0.045404919023152
1505,-0.008921298866881405,0.009925181671459669,1.018726369639933,-0.9929086783943877,-0.7444616038232312,0.13338960889191345
1516,0.0015163312331961587,0.0025211296334450364,1.0074604169905046,-0.8462034959133474,-0.5157581201292858,-0.0726195965826175
1526,-0.0006691514997020252,0.009192481133677259,0.9829651628519097,-1.344649967167088,-0.8248486101502738,0.04222165256561724
1535,-0.0020736537337308495,0.0045694059421719216,1.006111024936752,-1.1845453643822517,-1.3110709915518237,-0.14188478123550688
1544,-0.0034782360126251145,0.010903145334895527,1.000611151329323,-0.9960980929250046,-0.9281555939963961,-0.06514964445895155
1553,-0.010088260328462374,0.0067180442128192495,1.0154671965271518,-0.756766000835412,-0.8719820111119999,0.10407640709274628
1562,-0.001459975706607781,0.009015495533479245,0.9994980480924517,-0.9334339505767031,-1.0862190756404488,0.03510584920390505
1571,-0.008562383953611977,0.011301725667043898,0.9952109616688991,-1.0691852403578903,-1.4821879778018208,-0.008724184228190776
1580,-0.0008229819591407331,-0.00030289831825956737,0.9954104339250154,-1.2272423189557282,-1.031082385546338,-0.02957527106241965
1590,0.004559995017711837,0.006771443462066541,1.0122921695922902,-0.9122082424653265,-1.4011134149661657,0.11159189660526607
1600,0.0008983823653270356,0.010476506886032315,0.9977833996649507,-0.8554844657431127,-1.1675548617160554,-0.03980240778475847
1611,-0.0021947751330940817,0.011175397392237336,0.9963961083456327,-1.2179534464360977,-1.113579171908894,-0.2802517273905993
1622,0.008619445454280606,0.008397097442763936,1.0070372320089487,-1.3460370268407136,-0.8370793095344573,-0.10024751726704093
1632,-0.0016566273384385644,0.018107048092515326,0.996684637960377,-1.049984231231479,-1.0077418708642552,0.3715277647593095
1643,0.007346350061918567,0.012973099292767869,1.0021743911629493,-1.310907141656074,-0.720369415980127,0.14014332820265318
1652,0.0001505067948259992,0.011962615186339457,0.99171758343507,-1.3202289831071876,-0.8524516086435185,0.0973447573760798
1663,0.01209869927986824,0.012875906799415957,1.002806252117799,-1.3077303406770737,-1.0235953362669554,0.12622570807961442
1672,0.00482491807382515,0.013542899411266244,0.9960589818511781,-1.4111422211863731,-0.6790860900967672,0.18223533714486592
1682,0.011638582260755507,0.018265006016755125,1.0015801721406001,-1.1016292746179834,-1.2922058534366943,-0.0957552665363874
1693,0.003968376164448969,0.011348199828392191,1.0226931994188908,-1.2550143659543127,-0.8947339483169411,-0.10389680231627982
1702,0.008786016848302373,0.024781254014281204,1.00819168799394,-1.4338310282399158,-0.9193056191684369,0.07578373593016023
1713,0.008527022604928951,0.018418269711485767,0.9983283256266263,-1.4005740835601586,-0.9632287337503351,-0.10437592323553394
1723,0.008634775193230314,0.0179960107036676,0.996655414977636,-1.2147198061531825,-0.7027187349533539,-0.07270297464117248
1732,0.01670549557419539,0.024403667494745082,1.0039255599069177,-1.3662834313985968,-1.1452785892593174,0.05512558700321076
1743,0.008980243602740936,0.019224935901962014,1.0001526581281883,-1.5047990100308206,-1.0889268829552337,0.052182940426722446
1754,0.008279510690266393,0.014745483694081855,0.9974668251777883,-1.2885578898140142,-0.8668053729277075,-0.004913073385875649
1763,0.01281210874639311,0.02163630915014893,1.0049988118288726,-1.3141574854349156,-0.9387656880981478,0.016480448614467624
1774,0.01214031584425867,0.019757567569877663,0.9929190279487797,-1.4720649992208117,-1.195577757558141,-0.0803416788399582
1784,0.024006884980186848,0.023230365914148197,1.0018769116951032,-1.442258734468362,-0.560185963138554,-0.1419338935160561
1795,0.011030804413461229,0.02129564188863812,0.9947353848938411,-1.5897357551376603,-1.3317432491788463,0.21938308603008821
1804,0.018264628408277677,0.012696000733644384,1.011071147369922,-1.8602804751478916,-0.5649983039935503,0.15218014655356496
1813,0.011834218551059414,0.021416308777981945,1.0178011759883412,-1.2839926066079523,-0.8886819630652286,-0.10613066823144975
1822,0.023162980639344768,0.022830818938049918,0.993555169154989,-1.5065562242848336,-0.845911295011255,-0.13761418938901585
1833,0.01879540964650878,0.016331987834806053,1.0040154546435054,-1.3818676035889688,-1.1360395762436482,-0.15207590489903267
1844,0.028698431263207865,0.02541870986906078,0.9922512350172977,-1.652971293854491,-1.0968156901587534,-0.07696878196581475
1855,0.023874540090833295,0.016943079815090824,0.9907634328740612,-1.7061257126919167,-0.6579538721527751,-0.15872332956163202
1864,0.01320986832100701,0.022029772054322733,0.9879016073998759,-1.7601476077711007,-0.9893229317725585,-0.07591161572874716
1873,0.016672357470318956,0.025077137186716482,1.017685216261061,-1.3672231727746096,-0.46870371397162613,0.1389898374995602
1882,0.014485883511862818,0.016065840577095584,0.9876339879889969,-1.4409304721034852,-0.7019827629275347,-0.3081079578973826
1892,0.0246640959047201,0.016473031628125585,1.0051574113732948,-1.2474358950081368,-1.3037075402006608,-0.00324137217032975
1902,0.02792159427931433,0.026451747101134914,0.9912314309680228,-1.2350587084899871,-0.9115627836732388,-0.0026384749079794915
1911,0.015523054567986472,0.00512108511498088,0.9864371800773394,-1.538158481687191,-1.0707498486143288,0.25313818568811985
1921,0.015893675600744915,0.022320463040803287,0.985587263739318,-1.6975487754833332,-0.8089967371935363,-0.04425562356675519
1930,0.015201893097100783,0.018014276096176028,0.9997550695506847,-1.099877389257139,-0.48787617505929703,-0.0451964697398573
1939,0.016597657255838193,0.025400838859296712,1.005850308456056,-1.3422805001356792,-0.43754458040388733,-0.04682141035105044
1949,0.025380760129025723,0.0252361252689018,1.0110244981882526,-1.3509418608625379,-0.8380306574210343,-0.10499100783523349
1958,0.015474434778902098,0.011172642604810316,0.9989282180607229,-1.7784739828593474,-0.9991211966873994,-0.03568595002273773
1968,0.01903898329336399,0.019187485870351618,0.9911167389921678,-1.0095460530466382,-0.8865213820540454,0.21440221164507559
1977,0.020370300672425037,0.021756773837922058,1.0170673857259884,-1.2806459678657014,-0.4114425954926729,0.15284470866880914
1988,0.020936814719005537,0.0179059004577259,0.9911579670462278,-1.1589075788478997,-0.5394265401033254,0.10698072889322995
1997,0.02305469848305131,0.025589844829440815,0.9847124199815879,-1.74629322521249,-0.6689381313928366,-0.0441045879500326
2007,0.01805435033845979,0.01507253382043713,0.9923083496358485,-1.3744606426536252,-0.6449923308586235,-0.16374605654381177
2018,0.020409248286051285,0.031015205273093656,1.004638692780289,-1.8406893033040577,-0.5221970274099561,0.21208089254032655
2029,0.024855438563329262,0.017195356620879586,0.9980548763532306,-1.2115069964480352,-1.1216592369861331,-0.06704745532805581
2038,0.01998225972371186,0.014864646370265263,0.9999997110901848,-1.1051926020604168,-0.4154459310509201,-0.13563374002558237
2047,0.017448249537758344,0.011306107096219986,1.0029657599412278,-1.3195124690385611,-0.46302476935947756,0.1385156143283695
2058,0.02181231139149461,0.021050023366166862,1.006688406897986,-1.4086332303635845,-0.7384847349276035,0.04205396072118747
2067,0.013987002925047117,0.018989904933930483,0.9930598115757189,-1.2066912233952036,-0.42238609377104414,0.052477943967212
2077,0.026643983235119163,0.012015108463412274,0.9895900269851478,-1.6168286362665496,-0.42308807272324345,0.09384461171203896
2087,0.016700157722269425,0.013055201152876353,0.9969911227459767,-1.522448767179895,-0.4315374882876533,0.0020104767505391826
2097,0.01782470218132119,0.017988329413134302,1.0127470615633003,-1.3946463486025464,-0.8020727416445326,0.12035613848135074
2106,0.01634374632844582,0.016296248605224085,0.9844348364186903,-1.1051502536137154,-0.5732210787125728,0.019357652012358915
2116,0.015645516923576595,0.013836307734110357,0.9925917194579758,-1.271012985834464,-0.33081402165948015,0.12464541766469889
2127,0.011958673063043972,0.019027811146036744,1.0057005796803995,-0.9593177920177389,-0.6296004596382557,-0.02085726073182276
2138,0.006871666553709953,0.010894950932361038,0.997975312082259,-1.211670628739376,-0.38091928276272263,-0.03197629140312478
2148,0.018593620252703225,0.012337493069608066,1.0175356797430144,-1.1512659205054248,-0.5868021550555311,0.20176871371499822
2159,0.019441188829665584,0.016223067765381648,1.0002245063497373,-1.268457509988469,-0.49324013392093286,0.10916356062880303
2170,0.017496902739921102,0.019376092944411314,0.9849603971174838,-1.0670023215037785,-0.6110315846199481,-0.20178870028625592
2179,0.010479405400188215,-0.0005805293939111049,1.006529848158746,-1.0817285449755223,-0.2405967286767374,-0.30210408575929276
2189,0.017899118607229182,0.008131626834775207,1.0124858862716015,-1.1042326333443788,-0.33515846030299584,0.250902862624833
2198,0.009588670403295627,0.019762846039951352,1.0139498385723065,-0.9771978928166083,-0.3632414052046228,0.2659884703370924
2208,0.017509881182053755,0.004206138864481283,1.0077988162935472,-1.1583978262971006,-0.06105963437491621,-0.02886737320440665
2218,0.004495381096242037,0.015503510171520428,0.9995645235361923,-0.926824159345477,-0.461705609121642,0.07271895269842982
2227,0.005658675324383411,0.0071086569021305765,1.0128849977991323,-0.8423850142082634,-0.34996239244137906,0.19108165580990275
2237,0.011887394111969004,0.012429542153677295,0.9847710811434743,-0.850525433443832,-0.0013843331847368245,-0.10925588416616314
2247,0.006310814543191393,0.020941985945386862,1.0037401212295043,-0.9517958438815272,-0.3400715415815362,-0.10839205406899467
2258,0.0023530721005334924,-0.00472994167692654,1.0085331568601195,-0.6798176750922931,-0.1847238773675818,-0.03915289678870261
2267,0.007617660331956325,0.013028790300782304,0.9841721384031916,-0.49398430744917116,-0.06438870833358572,0.01749581774881794
2277,0.010805980987406077,0.0036942556253286123,1.0010726793756033,-1.0957612747751726,-0.3557905595224536,-0.02781477551875031
2288,0.0031090174664955496,0.017013392228912214,1.0063315850769723,-0.7800212927263024,-0.5757659854737543,-0.03693035051441429
2297,0.004404400700872783,0.007792750583857184,0.9683740412949231,-0.5500637500525477,-0.2169060563135752,0.3259285869593458
2307,0.004741872319869784,0.005834341099927585,1.0055023611704927,-0.6844480114352581,-0.25496782613369917,-0.5017087219807462
2318,0.017420760973011293,-0.00043215447504729287,0.992238365404795,-0.9770429610340847,-0.2338585220607689,-0.038389474317665054
2328,0.006941148414447252,-0.004464036951698632,1.012789783075582,-0.7958631162154882,0.008292366973660203,-0.17214957745623402
2337,0.010356941061346953,0.00045216405153838816,1.0009716672750362,-0.40719494289611413,-0.2056577182708666,0.1499258261149281
2347,0.00283048945292161,-0.005363691305293632,0.9967614561680992,-0.6606578966135461,-0.3061231307315598,0.5522297520146188
2358,-0.005241166346509647,0.0005669771371857723,0.9889812058031445,-0.42680648902261153,0.12685631805722963,0.09281433830210833
2367,-0.008043408159396484,0.0016137357556235744,0.9885231478310105,-0.19640559055840467,0.07562817842002548,-0.2104926599475094
2376,-0.0012897553748344903,-0.003931245186513014,0.9798709075886932,-0.511977256968295,0.15786968403912421,-0.15806022671421094
2386,-0.0001239520557845342,0.0018102851951032166,0.997670608595138,-0.6476026200627701,0.4551986238507815,-0.11553332888202351
2395,-0.0031189901110803644,0.004519469231499951,0.9950900556649516,-0.4695749367137122,-0.0029423511295851162,0.1751209212008491
2406,-0.00819255942734796,-0.008488821277821083,0.9946418115437166,-0.4569549998613087,-0.2063639532164235,-0.22786155158607946
2416,-0.0012027164999397918,-0.009341849681966073,1.0010924430291197,-0.40391702920339795,0.3941727869478938,0.060536931105651295
2427,-0.005905392463375157,-0.0012507033822170902,0.9875257232743747,-0.4425426516054972,0.552920094146201,0.05948886475634831
2438,-0.009518543509323147,0.006753357864735443,0.982030719667254,-0.2419546524443797,0.09613193844157614,-0.11566955467198804
2447,-0.008209249107343716,-0.00867937658996693,0.9903587248379202,-0.13437015841478916,0.1208145867767052,0.07048334347619581
2458,-0.014196434413560919,0.006828081170187914,0.9943111294545232,-0.04003616667489271,0.2183172084952949,-0.1800401480451869
2467,-0.010935189309790545,-0.002135790513479517,0.999172988723865,-0.023076815797873518,0.3556970813695399,0.07097518732717928
2477,-0.00587214890276396,-0.011758984957675436,1.0209782617777299,-0.23605225434082788,0.42023585056719726,-0.32206171327835614
2488,-0.013320685421108593,-0.0006715065858406873,0.9879754140277941,-0.09209394493550188,0.08877136987062906,0.0010041294056816242
2497,-0.006459034284548204,-0.006366731478261999,0.992844826211132,-0.02160200631136304,0.2231982313669081,-0.023691810834563985
2557,-0.022261177626902946,-0.017941531059469825,0.9961620886903866,0.01862920898851711,0.4861594545008631,0.0036740030035397678
2566,-0.00892055030395131,-0.01830239817534357,1.0008300482082773,0.006957929960407561,0.1965505192626637,0.11401555353739766
2575,-0.018033985735867702,-0.01019048467071081,0.9917323275358065,0.37386098132817835,0.06835472607482107,-0.08634817691720022
2586,-0.01696764339998217,-0.016143548373527383,1.0098847700700366,0.24001554372347,0.4942679646927224,-0.13111739498066882
2596,-0.016270989248542797,-0.01766787984808263,0.9882439146694317,0.29452368555623215,0.5656493079161883,0.022869625292230317
2606,-0.014807945422451278,-0.02050240487317035,1.0125439959588696,0.685133191139227,0.7746686942839416,0.26722568312010464
2616,-0.009257316265572284,-0.0022078454689924993,0.9994344958161985,0.21272012958781938,0.3026461814254556,0.2411221183476707
2627,-0.024089269628531064,-0.015289750468304003,0.9981909760516434,0.4265050386129338,0.4684341939798202,0.06306411805869035
2637,-0.025749462624894706,-0.020584789711007426,0.9976429576743535,0.15499804163334047,0.7562830924252686,0.028359998090312304
2648,-0.01661743232217342,-0.02499489196646207,0.9858772417069059,0.3458658342340535,0.44520448384052513,-0.04595488438573576
2659,-0.020275180816313368,-0.025419708415402857,0.9864484642335026,0.7883690787137319,0.5820447319632596,0.19533706027756523
2670,-0.018258605915427804,-0.01668597263888886,0.9977673515453779,0.6783571104177446,0.5121360305033084,-0.14353303401541434
2681,-0.010352885063195082,-0.022527048804573926,0.9996812929249935,0.5392610976006584,0.6930434853914785,0.07799878094715665
2691,-0.01376214416568142,-0.018034449642057932,0.9820800465948678,0.995032313314111,0.3817147899917669,0.046421175708020214
2702,-0.024888214552213857,-0.011460195429622254,0.9973913969773623,0.39935665806067944,0.542067172732073,-0.19294640090383788
2711,-0.015870837994232,-0.01958367252553163,0.9928512555161848,1.166215832375622,0.9928946008542684,-0.028654881297487285
2722,-0.01781233080707812,-0.011244694001671588,0.9962128394490378,0.9167327854025158,0.9938838111020147,-0.10812192694252766
2732,-0.02148963798911517,-0.012652478546282007,0.9795129538116963,0.6659470649094579,0.537738503117455,0.08491374075174259
2741,-0.021025476059584734,-0.015189949182813127,0.997939808534876,0.6288088132302536,0.5518736961203619,0.0409008537513944
2751,-0.017894698046083856,-0.01021273942965625,0.9982988119380402,1.0946440083949711,0.6970515296372874,0.07148050229727317
2762,-0.02315770544504229,-0.02145965758475108,0.9940600854225354,0.6582064106389056,0.6828826614541753,-0.037545310145386576
2772,-0.022647756555628888,-0.01470966630495003,0.9977213535633295,0.8052107282232135,1.2776300402947296,-0.09157894073331115
2781,-0.029583239524275044,-0.013305633062312432,1.0082264850653997,0.7730262055694543,0.9119991807234004,0.36729712381524254
2791,-0.020102367461342238,-0.018149538220968865,1.0017062031175519,0.6710870443871688,0.800606390478276,0.24421506739291776
2800,-0.01693124522676118,-0.02152509352993612,1.0045924421697026,0.9016344528144818,1.3752204272021409,-0.24859269537151454
2810,-0.018646962712908208,-0.02308609093776044,0.9998729361637014,0.6076898909634062,0.7744692864355901,0.040185235450595734
2820,-0.021364825897062872,-0.020980501385455118,1.0081369666030593,1.0233118211385615,1.0499988044747692,-0.012852194076208228
2830,-0.016896426023866956,-0.02171985579456095,0.9920202560874194,1.063218742713104,0.876755275507626,-0.12534143671161788
2841,-0.022386396295290156,-0.01899508557769378,1.0063742540869107,1.3968153096861013,0.8902978581522547,-0.1879469157373515
2850,-0.013943783952977417,-0.011156541395568377,1.0149471735078213,0.8929806930093356,0.7499078770428561,-0.006125499985593149
2861,-0.006345131524364299,-0.011897556036107333,0.9767991090688648,1.2120063376731502,1.0431806673114123,0.006330266940945058
2871,-0.017368571929937567,-0.032195433396380924,0.9948634231594425,1.4731688283701478,1.147606713031321,0.015682368078304344
2882,-0.016593516751386643,-0.01227469180593596,0.9942394718997243,1.2205020919958123,0.6911168467578832,-0.3127233555766363
2893,-0.015816424813114318,-0.027120278714767673,0.9847033506352788,0.855753276211306,0.7838069141941162,0.07835952461361734
2902,-0.021822205443527424,-0.018632558151790088,1.0096489231133605,1.225308877392147,0.7559895219681644,-0.31633660292329513
2913,-0.012844767662232241,-0.028042315234351467,1.0011243769472793,0.9604289611075554,0.607238207769192,-0.1494767302190767
2924,-0.022658215294787835,-0.016411599991484196,1.0113670335370255,1.40495738931244,1.1399827578044552,0.07148972667562715
2935,-0.012873127195633155,-0.012804219360085804,1.0100436581981387,1.6417576192943932,0.6337490989270431,0.0809501730997415
2946,-0.015991419601227762,-0.019547722823157643,0.9818514331364626,1.3005217286958455,0.6946579680139576,0.051918569057481864
2956,-0.019408199060216683,-0.02069139509141682,0.9959961160477928,1.1895590880085853,1.0837355102482862,0.015675021737714755
2965,-0.013154734066869771,-0.024502297433030524,1.0088216742621694,1.4077866082612167,1.5285685692288313,0.18750006709974132
2974,-0.006795432454144507,-0.018151874282314844,0.9985451329290175,1.4928426782494142,1.13322330494351,0.1615520635264796
2985,-0.014901780939910857,-0.021447961822399567,1.0098089018266934,1.3777060791687552,1.2488384057066402,-0.23872793905476908
2995,0.00022784247629130394,-0.010728009452419654,1.003767018023649,1.3246267359193853,1.0215357905463363,-0.05799731175106516
3006,-0.012365810972651778,-0.014935903542926962,1.0188081974553005,1.3640538939431606,0.9849663866331589,-0.41533937266407606
3016,-0.01252910877169415,-0.021737022795533287,0.9817529072863966,1.3524447041229555,0.9715004664448138,0.1382587321633469
3026,-0.005075891420780995,-0.006328518167495892,1.0002486846374457,1.386859949697459,0.8256332209195184,-0.17510743392687228
3035,-0.008161994028769872,-0.013537751190353933,0.9909646946985641,1.3259920081521055,0.7864514604659072,-0.2684791116317643
3044,-0.007911916588985303,-0.020074740132616717,1.0006876364423771,1.5948889912545914,1.0256879206695644,-0.03862323357954485
3055,-0.003140498383291784,-0.014666109956599019,1.01133535244894,1.3335868478562865,0.680838405213233,-0.12075396441000971
3065,-0.005191888461525982,-0.003863186090590477,1.0120883819716409,1.4507968497084531,0.8509299219153993,0.06219064741551088
3076,0.004569430605989491,-0.01678961140190633,1.0119154770615326,1.3319349329598018,0.7814666761461356,0.07750437853630973
3086,0.0025513952797398065,-0.015696683666521424,1.0019544223088395,1.31472554368681,0.89547974977554,0.04279647637774028
3096,-0.001119634171804201,-0.006822394467077926,1.0004053156706856,1.6329595083561177,1.0656930816133119,-0.06535331493087543
3106,0.0026898328447215445,-0.015261007681141813,1.012505234036077,1.4427402746981404,1.0967620578925639,0.08350629954860575
3115,-0.003104025426285116,-0.009717271223021968,0.9908447005931375,1.5564523719728223,0.6318399855828609,-0.06263736504912291
3124,-0.0022722948060289283,-0.0035654061555778606,0.9837672970486684,1.253443356074826,1.1277013814411836,0.23511116498993034
3135,-0.0021842601996955764,-0.013458252758906993,1.0055678811375297,1.9212700979425645,0.8562836935607687,0.310247296875082
3144,0.01199947009893462,-0.014780860607230481,1.0291619261637026,2.0294491094621487,0.8522022867385267,0.014766486230961098
3155,-0.00036745727935986257,-0.014031711225635651,1.0005901105236283,1.6749526141245261,0.9534226121642797,0.16447107102604608
3166,-0.0005184644200727697,-0.0055476580796471435,0.988310120458767,1.4783402168156452,1.458207887401329,0.24575523321888915
3176,0.0030646189667691043,-0.012333631386480828,1.0025148397215053,1.660269705537054,1.380834879480744,0.0849006264450394
3187,0.005977078894590461,-0.004189104397110363,1.0120664500265697,1.3854776757828529,0.8959442880529951,0.04270267583049497
3197,0.005209568193415391,-0.00020610023867796354,1.0003393100696976,1.7385136352353232,1.164046195602581,-0.04734725031847297
3207,0.012178757312553506,-0.0075132062709370355,0.9939409359463028,1.4871598623731135,1.0254195123977066,-0.08772787957299875
3218,0.002964243226284943,-0.006232994735815918,1.023389604762419,1.082569312029099,1.2232787418609883,-0.048515857547854625
3227,0.013691545450498843,-0.00724044558999369,1.0009277967541044,1.2605318662859122,1.0651519028474488,-0.09094908877208954
3238,0.009569298535582048,-0.0011619387031313018,0.9966026250422959,1.4759170978653453,0.679213221307695,-0.26619507737782344
3248,0.007777397239084858,-0.004111762719429033,0.9899154425537543,1.4058495337963288,1.2957776427622552,0.02518417131471802
3259,0.009971641409067365,-0.0027682491611481777,1.005787007374431,1.1596577553662248,1.124177013782375,-0.3087286102353603
3268,0.01499245058595624,-0.005043140889708076,1.000788715894681,1.7034106262476953,0.96536934426589,0.14031821382796406
3278,0.02150352414123384,0.0046496591030707165,0.9927809001190886,1.4516635894086678,0.9080382479981626,-0.11978537776879317
3287,0.005367897767356977,-0.008907606062422201,1.0002667109233694,1.31351989835922,0.7738782869027441,0.13089082063624105
3296,0.006495330734921705,-0.006077306668818481,1.0167714207424337,1.5814684656427633,0.8426466138991733,-0.10627669375090067
3305,0.021013403949168875,-0.006463093705192047,1.0027284005293626,1.80347783423134,0.8553059190899605,-0.18140225453033296
3315,0.01466854442240151,0.0016548060401386114,1.0191278097945378,1.168085346905548,0.892790683408391,-0.015075492925256421
3325,0.016781762987560313,0.002087562752402156,1.0114375138510976,1.6368939627354315,1.1316265729145052,-0.3112283015413815
3335,0.01591339481273015,0.005577337077084597,1.0050354419817522,1.1569012392681626,1.0690512811195374,-0.0815203747816905
3346,0.024116599833958356,0.01464987473919405,0.9980948571677962,1.0757184742517958,0.9831778725652649,-0.008005285249266775
3356,0.01534847454519882,0.005774382385309082,0.9891084461569803,1.1202861454075943,0.47474913547989,-0.22339899165376756
3366,0.019563490777229606,0.005190377137047631,1.0116022908722837,1.2592530766675745,0.6072821544365306,0.2809883543541036
3376,0.018731633581704443,0.011203628762238958,0.9874565984163567,1.485089137401136,0.8497844328365662,0.10828551746353622
3385,0.01905655351264293,0.007102604600603646,0.9966193622410495,0.955395687452877,0.8724909462925932,-0.13062631070707187
3394,0.026974741287918397,0.012757043182473261,0.9840825497385338,1.3263505538492475,0.9437112795907279,0.03840839168468645
3404,0.011310103068728834,0.008887847478732077,0.998067412673365,1.2138414499546843,0.811713112615243,0.05266371550422628
3415,0.01990925017511718,-0.0021874715472519806,1.0103044327844886,1.1790452600409895,0.9127421244405096,-0.23693875399402792
3426,0.0296003243541629,0.00047804063574063277,0.994516251596076,1.0832775987274024,0.7624819050519867,0.05586720592907078
3436,0.018149924892821613,0.011628467522531943,1.003994485185081,1.25118636692444,0.7241352087639693,0.24937611578122232
3446,0.018725458219551704,0.013194191857078047,0.9905103003762253,0.8963267356784513,0.8522443998895571,0.06721718210547097
3456,0.02404104060498728,0.01022763752272036,1.0053216876643658,0.8959883567145966,0.9483359773297203,-0.12306898738891912
3466,0.023219747754590816,0.001506167992316735,1.0053389577183436,1.015695415069299,0.588379396860492,0.32861625470859634
3475,0.016340217714791994,0.011501174245798228,0.9929639218587775,1.1130506375459077,0.7589270553815894,-0.21139929864822518
3486,0.020514130639778215,0.0073414642207845285,0.9966777204050473,1.32228413957273,0.46522930538446405,0.26092090429061743
3495,0.014498473094461449,0.008735058135821965,0.9947419250319219,0.7217851814299973,0.9733676765916902,-0.04857641868656987
3506,0.022114102057043266,0.021400324564358426,1.0018505474844437,0.8533553064704583,0.951242517066637,-0.21822073801461309
3517,0.01286948732996724,0.013334969618235316,1.0007347392827899,1.1793492737439553,0.654673693076022,-0.2583473062048286
3526,0.01358210223904988,0.015869251253640436,0.9892502894475506,0.7368555179591814,1.0767071155001593,-0.1400086726550616
3536,0.011486653572993586,0.011827604047041886,0.9865009018651032,1.1563449325126998,0.42713789573662486,-0.04915422871646679
3545,0.022901459661873503,0.017033862461250292,0.9969194588583012,0.6959498655535044,0.49624375334777265,-0.1255507031596705
3556,0.017701851730912307,0.010592308016637426,1.0004377977730556,0.24507992157155378,0.6493608963152981,0.009244213044522782
3566,0.021289867184038153,0.023715155350703804,0.9857459627842237,0.6232409425882292,0.6959197883690468,0.14281427758924944
3576,0.020654730786258232,0.009367103318520075,0.9908014497761867,0.6984794634700086,0.7386056434222872,0.010836173615768626
3586,0.02143373160300727,0.015343854970051647,1.0079147091740204,0.3832511005350027,0.524131219519754,0.11208693223175431
3595,0.01482693290915961,0.016083836342417508,1.0130838539682203,0.8194247772185446,0.544976683012265,0.016466037626282907
3604,0.020140414290388712,0.014720864152877672,1.0084332597371743,0.36979915295194055,0.5490120925085628,-0.08063163884319058
3615,0.01908519105666674,0.020486113213696637,1.0068553711470658,0.7829585326822035,0.7246177467063024,-0.02811269907254954
3625,0.016495977843629064,0.015374020513894745,0.9944805260921734,0.3639971572597136,0.5351223304863312,-0.3098118780488258
3635,0.014246896822704632,0.01529511374164263,0.9980953177844196,0.3660686550405408,0.5566650514460391,-0.2727951169867295
3644,0.010179160915516598,0.014077389460793632,0.9907118260426626,0.420563710149922,0.5683611095237113,0.06974408270398162
3655,0.02169515512002684,0.013897036869207336,0.9913485605158334,0.2182274739792965,0.31400635942528415,-0.12841598935410106
3665,0.014020506236551687,0.023224687234008248,1.0069997875297239,0.6534384481215254,0.6404288069201546,-0.3191903021420908
3676,0.019182328612266902,0.02038945427407361,1.0063010592812294,0.4641355681250923,0.6067647722252412,0.21054945540017397
3687,0.011235156082151001,0.023584454333552454,0.9906494171324974,0.21369503186704591,0.21430329254262023,0.01558065412814318
3698,0.018659284457542172,0.01812721377661431,1.0041193219865727,0.4113268214323794,0.590058255329424,0.2659330382760288
3709,0.019762701402891658,0.021147837105893175,1.0054086958846722,0.23405671183725804,0.6276022036800392,-0.35449793839528204
3720,0.011796851060107149,0.01551689008406516,0.9842836298156171,0.20303757250017318,0.2887057122693478,0.03135684419199082
3731,0.02242356454152742,0.02146222319898205,0.9979043987945275,0.30045720928417785,0.26401032281069686,-0.021312698100495554
3741,0.005661223782618118,0.016457617516659397,0.9880469561894463,0.11536426210511702,0.22171909141629767,-0.05225685168278631
3752,0.015008017623817442,0.01568172671795414,1.0012844721483936,0.01479819914284014,0.2941789034393192,-0.18502831509428744
3762,0.01979275280940408,0.025641297593564486,1.0000710737908913,-0.13847352655563094,0.5426283667158199,-0.0007080519704261015
3772,0.013002367607520875,0.018374895203437724,1.0033116403212654,-0.08268356338122171,0.3570880864511278,-0.09527233835542738
3783,0.006937753489555829,0.017542762897426904,0.9965448720146866,-0.3236035839136151,0.3391854507762317,0.07095808764082885
3792,0.013798296263373063,0.011609916210442247,0.9888478242171308,-0.1878745644675368,0.16706836638819955,-0.05207463748568275
3803,0.007791660998850895,0.02616646032269538,1.0114863412887647,-0.19477702046894357,0.5429875960005336,-0.16179903473606772
3812,0.017415236477428413,0.017769380797592167,1.0272901950185698,-0.4631225546317278,0.29786075070474954,-0.05794528043845334
3821,0.008243506566698589,0.027593238878994064,1.0080146211215215,-0.4893382442599271,0.10671820433977397,-0.15558349838054833
3832,0.002683390621261373,0.014376656008679115,0.997194828561922,-0.17591714305549316,0.2835173729399521,-0.24672980328418495
3842,0.002650871983013822,0.019029889145177017,1.0088398590583258,-0.3436231799166639,0.33862325094933665,-0.04107122525180168
3851,0.012571570223388777,0.01216384954354255,1.0223081763959827,-0.006348117653755092,-0.05330570921370423,-0.17379110752552387
3860,0.006720663512573861,0.014275920776319383,1.0182929870135529,-0.4092444058398065,-0.04293063041945286,0.004397681578844265
3870,0.0010794933045055796,0.024491249563902515,0.9894550704098856,-0.4644950700581729,-0.054573784491683375,0.18894558477942705
3879,0.010539707898411707,0.020689012993752934,1.0009389715697277,-0.4350237190728104,0.2017809859064488,-0.03773745659389219
3889,0.015618818678973393,0.01849826567770094,1.0045081835825929,-0.14812001003626107,0.27173795072665,0.16021933492110707
3898,0.00952018465109944,0.010946033608972325,1.0078748974636467,-0.3675151055837258,0.31478003459891724,0.10974287571167145
3909,0.003981003624046308,0.022221210609743733,0.9947010249936682,-0.2196954828384015,0.06501443145983068,0.21789547325548939
3920,0.003422406387379292,0.01949948426018047,1.011843641008479,-0.4234637605185704,-0.2014553651186526,-0.01983901545084078
3929,-0.003250144158383858,0.008569899582546362,1.0104469218578924,-0.5965577864538604,0.04769121430314266,0.04244668499051483
3939,0.006704914458107202,0.021725895708875256,1.0076296462117404,-0.4997413171487237,-0.08384925544850338,0.14034167127059696
3948,-0.006413563221750466,0.010738115267611734,1.0117013808400022,-0.5387019637226629,-0.13412560268298995,-0.057389784747935706
3958,-0.003686401272166583,0.009269155121379337,1.0059824976660259,-0.5119162050637417,-0.21588641394246086,-0.2741144904734109
3967,-0.0010003856049957526,0.014175620329922827,1.011574478583426,-0.48334874427880825,-0.20610788380392975,0.1276403663336579
3976,-0.0037956392620554238,0.022655070409593445,1.0001561168486308,-0.4679951353266515,-0.12736033780697942,-0.12083795746801401
3987,0.004797555582160412,0.016613546551131272,1.0048204196146693,-0.8701146246965272,-0.22094759382632576,-0.06037013350767821
3997,-0.006000613060477667,0.016145422044638334,1.0199307769811636,-1.1042456105440221,-0.23733572040151513,0.0023562990965486585
4007,-0.007533041321510477,0.012608848482844638,1.0011926387266585,-0.8579880856164247,-0.2714713807743314,0.10024451006010708
4017,-0.002889186301941433,0.008618335632890809,0.9899470760365384,-0.6419013850817532,-0.13934115670644218,-0.37164313146588857
4026,-0.005855794944165779,0.01334075255033837,0.9997819321628089,-0.8392068659941117,0.13106426718608086,0.09817500006201195
4037,-0.01031390431562201,0.020273178675711608,1.0011262855803225,-1.1375216234020677,-0.4520875551125804,0.12362593034683839
4048,-0.012313278829995517,0.009319678807076157,0.9956012540968526,-0.7382542920505165,-0.13433708995536042,0.2608365385181695
4059,-0.013158160196490694,0.01729748305617914,1.0012023342172727,-1.2808831273760737,-0.36816864544119793,-0.1012123128809438
4069,-0.011975234692011456,0.001254274155564731,1.0039683839262976,-0.9897332395318265,-0.4816677855665491,0.06596507827593288
4080,-0.0045233960218719615,0.01274388385025516,0.9966056610189048,-1.1539455715002325,-0.19294875863619365,0.0064782026601026355
4089,-0.005700162770490588,0.020310829385853768,0.9827020311071224,-1.1240093334457089,-0.34045931948129216,-0.08914154833319587
4098,-0.01265281918206645,-0.0009813069130906703,0.9994635986460467,-1.1966209700189951,-0.1892990150075183,-0.07971350932446283
4108,-0.013498377483554652,0.010387430379541126,0.9969250191319002,-1.3770945416487046,-0.15908169396463298,0.07696211880656283
4118,-0.004528199546788927,0.011361717559743188,1.0029185339026125,-1.0452914180946633,-0.3108712372084599,-0.3145654970252667
4129,-0.015071495066500887,0.0037556199480926486,0.9970033787981923,-1.176189879178142,-0.29553260460346775,-0.08522620956572144
4139,-0.022381082497011123,0.015161089490708494,1.0109674392178265,-0.7375230358140477,-0.059720149015640545,0.05959473573593396
4150,-0.01587263746383881,0.0007789344520564715,0.9954761544880274,-1.033561960237932,-0.46090762184232076,-0.1172563780799274
4159,-0.018279890856021577,0.004312940820485108,0.9984757637451289,-1.2979372391160204,-0.407155066196993,0.17809135487283237
4168,-0.014618443123367514,0.004290803655867494,0.9920500112430697,-1.222877883195641,-0.36360835932530833,-0.11054435750445955
4179,-0.021537144454649968,0.005401601328923086,0.9954729896211036,-0.9417847022714512,-0.4927058344798311,-0.11157670414131661
4189,-0.022218498731355563,0.00028278214514884485,1.0009338206944243,-1.4299924768273053,-0.22625992326876593,-0.14848774875804566
4198,-0.010888527262371614,0.012280652126348287,1.0123484698672436,-1.2785761083963203,-0.7178899802086773,-0.1739274575088876
4207,-0.01774457895702042,0.0021897798953220238,0.9893043001697767,-1.6566037378341338,-0.5445709967581979,-0.06955982556555236
4218,-0.013180159205846597,0.0009893551937690845,1.0260233169741506,-1.4798057378193423,-0.4482886619866766,0.09479240766165677
4227,-0.0092523816183396,-0.004121001870611025,0.9845838119020073,-1.4031267955466469,-0.9417805099009362,0.2918999193892625
4236,-0.024075205961910935,-0.002540170189957137,0.9934824824381705,-1.5303836613662516,-0.639519027260321,-0.029363313261432118
4247,-0.015577446810967795,-0.0012093821822974022,0.9993997516575965,-1.220503599122495,-0.49969490674654543,-0.22122117610041545
4258,-0.021925107706793845,0.003749387660268893,1.0024646394962005,-0.93176359953128,-0.38970590992905646,0.19413009134886033
4267,-0.017879584639380615,0.0007614531707546717,0.9900163793964867,-1.3767526560158014,-1.1327613976868631,-0.08679368599592381
4276,-0.025021256095049984,-0.0006582716235340473,1.0026136568206945,-1.5001490243814366,-0.5823913676696864,-0.11948311656913235
4287,-0.020299278795403598,-0.004400269930174017,1.0045814820321353,-1.5952813507100159,-0.5324590793147448,0.061441361984434076
4297,-0.021176944418644292,-0.00274075105404425,0.9944048919066123,-1.0990897150801133,-0.4473477535327025,0.3282717732190101
4307,-0.025907404721909784,-0.006531149578766155,1.0038391871890302,-1.4091667606249327,-0.6612711467118356,-0.07346026111665875
4316,-0.01311369920368806,-0.017391458284121687,1.012692073153448,-1.1956560832458978,-0.8978844481891414,0.15220120903277365
4327,-0.01425457829890549,-0.002299324386203008,1.0034287906296935,-1.515435689150364,-0.5846239165925159,-0.0017758466422773621
4338,-0.02240785962647911,-0.00543140024000922,1.0155585879570355,-1.6942769742081822,-0.7614874702781715,0.03862121783717794
4348,-0.009086726731481969,-0.0034215208923900633,0.9853397197610265,-1.3572544945624216,-0.9423888089755983,0.0035857845181177643
4358,-0.018144845661732023,-0.00451903802128566,1.0031173299002214,-1.3428303365104801,-0.7196661407962391,-0.026638419316585147
4369,-0.02496702874397208,-0.013108101952014568,0.9792945097323209,-1.4931128948568473,-0.8582520110116305,0.008444095540381488
4379,-0.017269587176735025,-0.006337515067797955,1.0091457121343994,-1.6602387068476032,-1.0310342667997185,-0.19771598489405354
4388,-0.010551328039347906,-0.009984230404971917,0.9920600206505751,-1.3053585638782197,-1.2364242871077806,0.031835964605114245
4399,-0.020728712727259922,-0.006468989459327629,1.0133037230959099,-1.4560315646900233,-0.4511928025629695,0.050104061177980726
4409,-0.004326511009582383,-0.005056649764654711,0.9832261498285445,-1.5622125895067391,-0.28120355564749555,-0.001003785582223654
4418,-0.018423431938999816,-0.00740471065476626,0.9826944786072983,-1.5725463145759726,-0.8592244433193565,-0.25408150094651505
4427,-0.03084449144727517,-0.01813205890516368,0.9821228179495793,-1.19431717479486,-0.7181039108781232,-0.004922165240126276
4436,-0.02544448672999186,-0.017069789685884882,0.9928418040561898,-1.9125529812383846,-0.5453420449119211,0.04106823773569039
4447,-0.02338979712707199,-0.015175186392968089,1.0112555347859444,-0.9382334137134942,-0.6910556146422023,-0.11823883993671352
4457,-0.016431220215172904,-0.011938489437776995,1.0127318210014664,-1.3900474593867875,-0.6461030025194946,0.021359601681759696
4467,-0.013709812047897774,-0.015328650670220524,1.0108401734526982,-1.24558569760453,-0.5453932928672256,-0.1413033855876885
4477,-0.013538188363053446,-0.01311967028271251,0.9984478528775371,-1.577103606333962,-0.7037402216645897,0.11769641088161603
4487,-0.01099753359002413,-0.015802318331053188,1.0093743162257112,-1.5348358131563973,-0.7636154577153764,0.07539513500274679
4496,-0.0072041760203603086,-0.016245580274640948,0.9868286464650634,-1.3450728095009643,-1.0819792829015142,0.010528688284014626
4507,-0.007101916523575237,-0.01699365169509604,1.0158579899347489,-1.5969477465659137,-0.872176177618269,0.19719587575796077
4516,-0.020019180689680324,-0.010235318475473643,0.9982729832377152,-1.3152046430392061,-0.612653502114211,0.002636698886273554
4527,-0.0259926291656132,-0.006183459050871596,1.0025047291787277,-1.434078533672486,-1.2926286937047995,-0.2027543372064967
4538,-0.011672832010068272,-0.010366386275341317,1.0050759125461695,-1.452012706727801,-0.9441049050141707,-0.11054720318320836
4548,-0.00709006012325816,-0.008020420986965909,1.0133329364798993,-1.2298290597520547,-1.2142779732857687,-0.24005392813753432
4558,-0.008159493279362044,-0.017164104805551667,0.9967531526905998,-1.556010229487283,-0.8791021621591234,-0.23302927940208373
4567,-0.017109520423348318,-0.012362518691549265,1.0203891249379373,-1.4486293169820468,-1.1529698886190873,0.006359401135992179
4578,-0.016897850171896128,-0.011398548522121486,1.0031653594098577,-1.6060406480343445,-0.9566921949956532,-0.107112858515458
4588,-0.000896355269646822,-0.0139862920073728,0.9975605845761517,-1.166041742040865,-0.8942731214711125,-0.017615553090526676
4597,-0.006649553627796715,-0.020456093506171655,1.0212516269358223,-1.1020054171293512,-0.7935744874143758,-0.018736000965837763
4608,-0.0019952292517066194,-0.023655035516997897,0.98677278998737,-1.1766086812548444,-1.1450212084150304,-0.09995065628473465
4617,-0.004718999915579126,-0.016982122817781022,1.0056917076287217,-0.9937618891422972,-1.0384241358320128,-0.23898903233214197
4627,-0.00893673972234707,-0.02275076775625888,1.008230618505501,-1.148029596922026,-1.2066438208078112,-0.05351346942399107
4636,-0.009404301690266681,-0.015303099466791424,0.9959306994946774,-0.9595837566774199,-1.0962396096195712,-0.058956214032285834
4645,-0.003421121186556148,-0.012627083009865769,1.0112106856255711,-1.2560376339566985,-0.7286816760789271,0.1745239828282082
4655,-0.011888489990021251,-0.01913170856014766,1.0105347844413684,-1.0655839787073136,-0.8277720736802566,0.2865059064505111
4665,-0.003182312416332375,-0.018358665282306542,0.9927344542440496,-1.1207835843339296,-0.8614006592882308,-0.16511666582175358
4674,-0.0029548668760731767,-0.027255383676408538,1.00787996693647,-1.0632653139483685,-1.5105733315929921,-0.10263348582488481
4685,-0.001936957687797822,-0.01816065070908017,0.990772816170707,-0.9723371926059111,-0.7007190426082066,-0.04899742588421999
4695,-0.004679550392403508,-0.021583443340319662,0.9969718533700949,-0.9146813128287596,-0.9670840751083599,-0.03167499002627251
4706,0.006766453150825988,-0.025251163376311236,0.9938804582830191,-1.3274349460551653,-0.7550229069015191,0.17309227945849895
4715,0.003079531674658524,-0.02095072566732937,1.0015519378326874,-0.9265764904780261,-0.9220728621681823,0.01605547975124029
4726,-0.01469565485992367,-0.013195326459427793,0.9867857273370776,-1.2957458018280918,-1.0214093722770905,0.3293854501843054
4735,0.007251658716581944,-0.016628570655342952,0.9813354936832327,-1.1256801322848407,-1.4419624533309807,-0.041310335288606434
4744,0.004112106322727613,-0.02669019331416054,0.9896736525073523,-1.0030908841652075,-1.0953040011953181,0.043503928630882496
4755,-0.00783843293853614,-0.026221121035504048,1.0038192644502142,-0.8862247760307463,-0.9315743906092564,-0.2587757938573803
4766,0.011736865615289095,-0.026694419219970743,0.9987062277982736,-0.618867493880904,-1.1978571845319317,-0.07424056949944365
4775,0.004513589254748941,-0.016814770261854566,0.9880653736355077,-1.0764378435032342,-0.5847247795846511,0.07597375285428905
4785,0.005147096557172498,-0.020897046602451612,0.9921865344659206,-0.8272181220113154,-1.1158114557696241,0.09785069330570158
4795,0.0028949622428166076,-0.010324181396001096,1.0095563386373314,-1.0569393083595524,-0.8446592624295993,-0.018553225205793094
4805,0.012579888922143154,-0.019927092879055655,1.003633709248175,-0.9298000153120674,-1.2324549199132278,0.1078962065104288
4814,-0.0024204951040900004,-0.014903122223701076,0.9903919472524663,-0.6332764322247757,-1.171930229331196,-0.01502357318509822
4823,0.005634320196614833,-0.0189377574641598,0.9955451908332728,-0.5103139045525744,-0.718608461852123,0.22045836112923753
4834,0.012567875546671325,-0.017787247283316286,1.009481453545022,-1.024869935772565,-0.9698597443737125,0.16562946405164072
4844,0.00892413917959215,-0.021945706502842693,1.0052854963724631,-0.8734110707286168,-1.0333781835319684,-0.057996695537887735
4853,0.010958377504544259,-0.012058424392813169,0.9760196483548491,-0.46165658361954676,-1.210710145395759,0.03020091386129284
4863,0.016816127078068246,-0.008455442372117327,0.9999002584323649,-0.9019651920526187,-0.99819078302933,0.14470711137883482
4872,0.017199395112961827,-0.02414814849890762,1.0015726496980761,-0.42730770908966714,-0.9282813425509239,0.10084098934885903
4883,0.01176578836930366,-0.016310123666693817,1.0032330829017808,-0.8623148792268183,-0.5025868972606096,0.018458692312061778
4894,0.017452588244791532,-0.008488818816324548,1.0022463664336712,-0.21787721523781556,-0.638902208049718,-0.08304205674050257
4905,0.01065256089053866,-0.020119998323670795,0.9933913013399889,-0.31907781810068914,-0.9295312862314475,0.1681831544029409
4916,0.007615863356138657,-0.01647157624882192,0.9989526671257637,-0.4215955813103421,-0.3970158479611554,-0.0014015280212691364
4926,0.00886695302536136,-0.01766828877180146,0.9969036142677918,-0.07572466140975287,-1.0900152650870525,0.01554928102818077
4936,0.009288694152685947,-0.02238072648506341,0.998897206226673,-0.022265827681912598,-0.770224424747258,-0.07909838414034402
4945,0.012352586529972301,-0.014685245026496714,1.018491482394066,-0.1658677634576085,-0.8187722557612,-0.14190055702952878
4955,0.013134126584874721,-0.021056528000116356,0.9806347187401663,-0.8398772749046681,-0.8969000067015669,0.1559361424094087
4965,0.016390678044616074,-0.019909271293569133,1.0183905444187356,-0.2420248812964551,-1.049758805018638,0.19764689018919288
4976,0.008833872940591615,-0.014655490278934459,1.0124272087003041,-0.35449984636587806,-1.250275185664821,-0.013317282881685695
4987,0.020066061259602138,-0.01440401089628017,1.004279120982717,-0.08783324986271449,-0.8726838399976815,0.2722551868888947
4996,0.028255677133192932,-0.015218079167577073,0.9959939109034305,-0.23144405270844043,-0.775825637975616,0.2995666265492897
5006,0.019512867471334048,-0.015519905762175318,0.9994467380120786,0.08951491829742282,-0.6985221688990957,-0.1360909762015554
5017,0.008374035950137311,-0.016569992271502625,1.0189199347154052,0.14580170926074212,-1.2222016330249121,-0.0009045749732244557
5027,0.013960777197656846,-0.010936012794367563,1.003935912474408,-0.0812411442876957,-0.6254883778995869,-0.006603949718261274
5038,0.030768942098011388,-0.018491918057448577,1.012381873834849,0.35493902502235186,-0.7605519363401421,0.055776302212951004
5048,0.01736038905845807,-0.01102457449469629,0.9993548632728053,0.06586279142062493,-0.832917489457285,0.2510904481217719
5057,0.017025263806691837,-0.009547660173431808,1.003817186490485,-0.22534496258974956,-0.6251554335393569,0.11620110372247015
5067,0.009119351440778783,-0.00018554660464437187,0.997939250473721,0.1885537199286415,-0.6984654346785969,0.13770024182930615
5076,0.026410709571606492,-0.012299959984981495,0.9981345319059585,0.17760342756612596,-0.42183111812699525,0.00632092480793731
5085,0.018339250879715618,-0.010765341047077867,1.0067815327426777,0.36091614798905103,-0.8375641400563139,-0.04794964893350397
5094,0.018744000478396458,-0.0019301443093772738,0.9981298218717601,-0.015051594200173435,-0.9420164019369865,0.267261014968487
5103,0.014077429522141766,0.0036757965874048663,0.9959045205184115,0.3849177430294097,-0.28612214400095604,-0.10755553563124073
5113,0.023528111151540285,-0.0042379357212680244,1.0068570446630776,0.30860763480742015,-0.4610147645608464,0.024402276612984535
5122,0.015105334727770911,0.0013107030791874984,1.0198931393393187,0.4497140013242036,-0.691787213220205,0.18543456723730142
5131,0.018590192839893698,-0.004362905267669491,1.0147970981019567,0.6262305779537273,-0.5748296976240668,0.022209528838464214
5141,0.01519844129311752,0.001469450756178025,0.9943089498614944,0.4418319372861364,-0.7497940806057103,-0.19918710354090244
5151,0.01763594099047139,-0.0010705615222218123,0.9861494847265299,0.4236595017551394,-0.7027733282144573,-0.14884469416053195
5160,0.012604072197116088,-0.0020778232673912345,0.9964234256835706,0.8343783800037518,-0.8994058276534966,0.0029201478646809055
5170,0.025918366450594865,-0.012630260541406467,0.9935584216455363,0.6864242116164017,-0.4750369043356588,0.15987365065912573
5179,0.016965334201493272,-0.00560611472681986,1.0001557145771516,0.5898410533653653,-0.5132322254133727,0.03849813773464699
5190,0.0174731314829395,-0.002057024285973364,1.010106316239949,0.7244484984874318,-0.5927103369534554,-0.0683696781715925
5200,0.015172335994859112,-0.003259367710991345,1.0077523323125277,0.6079763348790633,-0.21262727586376767,0.0850366047993109
5209,0.021128463710836386,-0.0020939922499691697,0.9953209046645211,0.47189785471251156,-0.2545926895665773,0.19488823719966375
5218,0.020718626487869797,0.0024522171052212063,0.9946263775185461,0.5482677485629723,-0.1380443751602567,-0.22990784595652097
5228,0.019226575742256665,0.001420118250295415,1.0025227300655175,0.6072456730300009,-0.9295516102340187,0.22424249212427197
5238,0.021163593490970738,-0.00296345710466719,0.9896311913591955,0.7850496894773449,-0.4053233671133343,-0.05944128514579884
5247,0.016286556708237195,0.002553604267713007,1.00551208609929,0.743791577664214,-0.7117972341186234,0.1009514214086091
5258,0.014998844027030141,0.0020600117332822045,0.9931399900568655,0.9495598880656471,-0.16259310037978997,0.04102545762066336
5269,0.018462217027217724,0.005175537614041393,1.004296026504108,0.8075801482871172,-0.49384452502262943,0.024344275730957602
5279,0.014909417378163054,0.005599436485901441,1.008257034655309,0.7054938764627061,-0.4365928757118525,-0.2404187383250937
5288,0.022253573038285755,0.005788104577106356,0.9935894596009417,1.1189852989313596,-0.4347127555732892,-0.0639020291230871
5299,0.013441144812040774,0.0018305723872287958,0.9926100184041784,0.6991491582525001,-0.16462508190071296,0.22570581204148712
5310,0.02041199521243879,0.010591671420299525,1.0107310679500217,1.3003725531000632,-0.12577961480460564,-0.2427553579721249
5319,0.013154094352099905,0.004325258695542216,0.9960705994175914,1.1426326650867118,-0.602683777429758,-0.008256182470842088
5329,0.009495782137593743,0.011406372730761942,0.9826140241528567,1.1205569229036647,-0.7045873453019302,0.09470428982693631
5339,0.006201510350307097,0.02275508630025149,0.9999433619540621,1.0182674365354867,-0.35664982687833713,0.023104234666486725
5350,0.013329133784474643,0.010533947124467749,0.9889795891316616,0.9158064488148503,-0.3714510665244965,0.16832638369303676
5359,0.007427672980897475,0.006480106773637662,0.9899061458324511,1.4224048465803172,-0.11730191571878174,-0.26435049119500137
5369,0.0033907649190314656,0.00902083018623343,0.9855757404919954,1.182133278174399,-0.2756521986535138,-0.07212361215821529
5380,0.00988508426427014,0.016673936399816864,1.0124279472330293,0.7066599677042755,-0.2967617457789089,0.17594581310285798
5391,0.016652411165364374,0.019351931380879997,0.9814465207872857,1.2029757182197187,-0.22160615703215833,-0.15372350449692787
5401,0.005079025191291276,0.011188955550238548,1.009045496358954,1.1230741325267843,-0.5285233520168586,0.06974494085945865
5412,0.002314180668704878,0.02095699608940166,1.0135634353508522,1.3134931958673908,-0.21893149658612443,-0.06790228263846829
5422,-0.00046237800451642656,0.016036018247123873,0.9742399498484291,1.239318587656367,0.17539505604983355,0.006673248217176367
5433,0.013899827096395208,0.010998380239021579,0.9881524714888982,1.3006226766196678,-0.019312130564859642,-0.0445327185262748
5444,0.008510810923696753,0.023411257145063397,1.0116483693907141,1.4736951416024089,-0.24585388121674354,-0.08178635723800277
5454,-0.0024915661607862434,0.019033241570568116,0.9973304380516831,1.1734748868768528,-0.23427736613102768,0.08227426008621652
5464,0.0001360090079364335,0.016868009481109978,0.9867563566689128,1.4942023061186007,-0.06918886531975042,-0.12640805168219088
5475,-0.0023254283703054504,0.015227557521887744,0.9989493453065643,1.0977508932019213,-0.01759959824728248,0.1007543340158929
5486,-0.00021807125887867145,0.02136756141870265,0.9867764149208396,0.8697616696184767,-0.3197198148018151,-0.3060584781730092
5497,-0.0068018201735435095,0.015416610958947778,0.9958300739128262,1.0568566405787638,-0.24603823368389602,-0.07564874068068621
5508,-0.0026735240060775955,0.010395986335104438,1.0097089959671848,1.2471723703700588,0.17088132332756312,-0.10938355756093097
5517,-0.00265530198217239,0.017763970728891996,1.0091055967613385,1.6475571556073443,0.14154736680693547,0.23755798748959678
5526,0.005290360936226597,0.017399793020381946,1.0021680262669548,1.4797754552199966,0.0853348001272124,-0.09897474415634719
5537,0.00585853963339763,0.0203249733266663,1.0160957408541795,1.6769856339246298,0.05194762436747134,-0.2994442235341392
5548,-0.006978972250660923,0.014783339601607815,0.9821885652564937,1.4222987330697627,-0.0017966986436939725,-0.21742368095721518
5557,-0.0002604968961262451,0.016738631189567265,1.0262814677569656,1.308694407228403,0.020914594159877453,0.1755779771584993
5566,-0.005523530547211768,0.015762533154256103,1.013480548091247,1.1718371630722664,0.0020593925803781,0.03755360300517258
5577,-0.008262493439968047,0.012399771919601482,1.0004035879611775,1.2202403820485028,-0.11779395340826829,-0.1569796264469334
5586,-0.007767839753307782,0.022480765266077736,0.9973580840362566,1.3604877491879628,0.28617987718337046,0.15989452112215635
5596,-0.003742417036802702,0.02063780518805148,0.9994707002042227,1.6017887589269595,0.20723876894319304,-0.013143527254436734
5606,-0.009115877536610603,0.016927873187744073,1.0050205516313984,1.634012072765,0.6554724873263013,0.10936966653139911
5617,-0.006841590673475763,0.016312486773272523,1.0031364074912683,1.2483871853080104,0.5175322965972908,0.10400410531379861
5628,-0.009354384887735562,0.023050574760157014,1.010789805251914,1.595159737154944,0.04311106111175467,0.093822908193789
5637,-0.016631655026879865,0.028373411772756325,0.9953547033454494,1.3450954812197806,0.14234233054930803,0.35385147938774025
5648,-0.02786987833482643,0.016781362992897113,1.0125857662120492,0.9955295286853373,0.5928540800616796,0.012331032254489987
5658,-0.011523042943602521,0.027154972511985547,1.0065198805248914,1.4267741496598347,0.7184817627589895,0.07745428619020951
5668,-0.002188301941547675,0.013911788827233944,0.9906036495034319,1.6630421819255305,0.2437175562548397,0.3231980167506823
5678,-0.01913784267427019,0.019405319376790936,0.9916431789376708,1.5113810626837036,0.25073648636750606,-0.10738058225269909
5687,-0.010865020404320084,0.01891785804307454,1.0119608646267768,1.4277388186622384,0.4429807829948995,0.002541609897938847
5698,-0.016736772128913356,0.017276974701403276,0.9924968437566416,1.1420755631124895,0.49331997522103505,0.27088979845694033
5709,-0.013820109461973712,0.012554277854871187,1.0154030611096856,1.363756993995956,0.5360566275497992,0.13682804071575458
5719,-0.013581166364301508,0.02000460791983446,1.0033306278120744,1.6178054487560705,0.7637072160654015,0.11928700203509324
5729,-0.020550603275547606,0.02239547942011765,0.9928030400963452,1.572864871841284,0.3689897048715048,0.0481617829431886
5738,-0.020769285098083155,0.013850367217896141,1.0004970006541871,1.2024345673131496,0.4385727881647771,-0.055482318143126416
5749,-0.009973293087999529,0.024461544071802222,0.998651190748775,1.5393427437074891,0.5021168700246402,-0.16021114878234602
5759,-0.01674926713965209,0.017682382595299116,1.0039123049233876,1.5666771257068564,0.4917022663445291,-0.26772006859071046
5770,-0.019698915129283318,0.025353497310044375,0.9937902640485338,1.8370268738397324,0.9102904259816762,-0.06506873204678945
5781,-0.026649143500878582,0.026997738382933137,0.9879862827668223,1.3420441220071722,0.550978177327754,0.010532851089318491
5792,-0.023421232294170778,0.021834698427245922,1.005908063234226,1.4827167019404706,0.5377338910854318,-0.24099632180657937
5801,-0.024879372194807514,0.02143245973784877,0.9940940576184315,1.3916717302554107,0.6391995169250191,0.279846681261603
5810,-0.01336845520387633,0.022302025907061738,0.9969501612358506,1.3611506153465893,0.588607907583282,-0.4555973954594829
5821,-0.025362005198748157,0.01853285428784552,0.9990563980059489,1.4447430456020234,0.8646655354142243,0.13957686963070476
5831,-0.014952549112598489,0.015241789139061924,0.9965300673760517,1.2282081951460706,0.6015185992572027,0.05568011691020347
5840,-0.021854624974852445,0.021294872568823536,0.99364053900747,1.2281333978319537,0.4092568339439121,-0.09772504947498459
5850,-0.015262215636049143,0.004115473103808307,1.0042409711988711,1.476235559843211,0.7177317248368921,-0.23082454021624976
5861,-0.028674365391913835,0.019201821535858175,1.01079975731811,1.5480477913812145,0.8247020498916703,-0.11608705305091534
5871,-0.019043944575484976,0.009323281790011219,1.011164529462541,1.4682860760602783,0.8202832975102226,0.0599682647662852
5880,-0.017417412746618906,0.012540747051816178,0.9985512907258064,0.9893838834183852,0.6324590265150402,-0.3133601370824253
5891,-0.026195602136231736,0.007383595055922218,0.9849372603672811,1.0832160321010327,0.7205058058664007,0.03987717385345838
5901,-0.037563815079207405,0.008712888872100581,0.9829873787126934,1.2851282880430996,0.6272416523310876,0.07962750715953038
5912,-0.020362196290948414,0.008968816968383947,0.9883412528632142,1.2531816734355952,0.5486064423768869,0.10700813808465845
5923,-0.01893111819193633,0.025390324348635814,1.015083807173705,1.140875330388518,0.7565401436863017,-0.08241654676943823
5932,-0.014476911681384206,0.023055005112204412,0.9858766180343042,0.7126673478142574,0.7430002952946293,-0.17175217547822605
5942,-0.011383021899419178,0.013644577306282914,1.0008965703503587,1.285538983676087,0.8058766071013804,0.22180609941587343
5953,-0.015417446725243235,0.008317023871714336,0.9891873458153757,1.1440044990479492,1.3275962924577702,0.12115203996327634
5963,-0.008688635613950061,0.018286302234702616,0.9946597791435223,0.9575490740423349,0.7885139233723898,-0.1969536107524896
5974,-0.015541920736509954,0.016175191832083477,0.9903535321288334,1.2654038304861421,0.9382012178326848,-0.15541723430424442
5984,-0.015118323727630806,0.008516698024943216,0.9846967204511472,1.2258634246788611,0.626777586899999,0.22004492403090112
5995,-0.007948786441487079,0.008893230027009993,0.9932795621760278,1.042914508602875,0.676734028218011,-0.011112118988758751
6004,-0.016142413796236103,0.012291871914695923,0.9989761763182997,0.8657242878987358,0.8930997339439612,0.2717966712059431
6015,-0.011893886848819224,0.012138929971255825,0.9867478777124822,0.967163597453374,0.7357844207418561,-0.12326041853227904
6024,-0.010926074783151832,0.00842423469917915,1.0074666016509635,1.1443870738709676,1.1214197641724286,0.04765339176496984
6033,-0.011164114122685236,0.01588812422353135,0.9898580325697336,0.8569235488489058,1.1570662577213469,-0.04104514436796195
6044,-0.0176264297695386,-0.0037848345977225563,1.0066069611335595,0.7989706784347269,0.7106324909952335,-0.10509276147742262
6054,-0.011364570170854706,0.013030344414097644,0.9856608366803485,0.6025084999324253,0.9510593169220608,-0.08588493432318273
6065,-0.018344650061503914,0.0038400719156724966,0.9910984795344078,0.36258842053126294,0.844226499195682,-0.032294488617834724
6125,-0.011210921674933866,0.0007484914100380176,0.9783109385442907,0.5155296020014409,0.8003378389333224,-0.2572214109597614
6136,-0.006431908079713312,0.0025732723150158434,0.9978802230323739,0.5023160338987376,1.0069573522215434,-0.17345764680439996
6145,-0.004384529221931992,0.0027966788769885403,1.0101625072897529,0.36411706549904,1.4333223371290393,0.002665477955906691
6156,-0.013336346914449973,-0.006887556008424053,0.9979547199916878,0.5123023963080069,0.8259333030993289,-0.0201728997660984
6166,-0.007830160508106558,-0.007400401343022158,0.9860612347944704,0.25859963260581786,0.9950402693028864,-0.23109712570381813
6175,-0.011807120659331727,-0.0015159083508104493,1.0021835222768543,-0.0360448481955683,1.21019804872089,0.10182670568707029
6186,-0.010298394080870101,-0.0022090447206028624,0.9955188441992819,0.019402723380853304,0.8928063991180327,-0.03534949911093953
6195,-0.009307483927099014,-0.0021555381516809424,1.0034300237751006,0.1347658643878459,1.1497273358033304,0.09812016210411549
6206,-0.006301444069844373,0.004559524979546512,0.9915384790573246,0.3758147785931212,0.9397879590689504,0.22371060266373766
6215,-0.012869492538729052,-0.0013018962753795528,0.9904419104007366,0.27560203952711654,0.8467030137392241,-0.03881793853637901
6225,-0.012232244194454072,-0.010517692477939676,0.9956278189212019,0.28254130578481307,1.0592839761206552,-0.057026351092737876
6234,-0.011228566217352909,-0.004486416328560621,1.0036565825128494,0.30214256391404803,0.8477085992792293,0.07975630730892629
6245,-0.008771003486619534,-0.012708363217145458,1.0094017545127785,0.20676658651968924,0.7596636929549778,-0.20423312232853677
6254,-0.008993440014094406,-0.007071416798860823,1.0066460324454771,0.1915395404613714,0.8096180557091657,0.1491161634903051
6265,-0.012235937849054433,0.000655070148835828,0.99084683515516,-0.09111804019693004,0.9348789476755024,-0.19650043914368157
6274,-0.004153735843195595,-0.013613472437643083,1.0043703919592524,0.3136100271782902,1.0543813197739889,-0.1161285005307255
6283,0.0012508339992986354,-0.01583066370054242,0.9956014627100434,-0.2613386660875867,0.913226486218848,-0.12581424660355323
6294,0.003791640099821179,-0.010612471705761139,1.0173898650908113,-0.04750650048630833,0.8787191152925167,0.11992662156414641
6305,0.0020132447756685255,-0.010394536782758824,0.9935559959963877,-0.51145029566655,0.6926629046242525,-0.07401332740282987
6316,0.006598914580594157,-0.014185232702556913,1.0078325858530492,-0.15970687171898795,0.894595391760564,-0.061137374330059835
6326,-5.836871583465202e-05,-0.014125735988067848,0.9960401800888498,-0.1079657319671008,1.1463343511472541,0.05501264849426703
6335,0.008207041753464647,-0.024670638502604467,1.0130418417980307,-0.4509759571130704,0.72022817839362,-0.10469025654396713
6345,-0.0030105689815650063,-0.016645688224557812,1.0011967702293454,-0.7402496147370627,0.7774911338656875,0.042623443113388004
6356,0.009454438114727485,-0.01824148421272507,0.999517610311295,-0.07534692823311123,1.0233554889132297,-0.10273674675516252
6367,0.007128053722461764,-0.010067703439632364,1.0115864909410475,-0.3786307929424963,1.3631506529865758,0.017303148102249203
6376,0.006084524353961795,-0.00989161860578908,0.9999303350627414,-0.5279189639695239,0.8647021367370482,-0.03161214827270087
6386,0.0015755213332766188,-0.00680377658084067,0.997100734433194,0.10014625210055683,0.7998755469718839,-0.30047750221408515
6396,0.008426042181558934,-0.019308709440836697,1.0003918395984903,-0.2605818228807554,1.024107993239511,0.28229324909436654
6407,0.004136603740918996,-0.00927793491569999,1.0029495085478295,-0.4016153596104231,1.1935556013371365,-0.04792999819738069
6416,0.010690462035976506,-0.0226748923975846,1.0110725041919713,-0.42872600781208675,0.7958315274292213,-0.1200986084212998
6427,0.014824800104699503,-0.021126882925390524,1.022150764745893,-0.5713388163759148,0.9321253553263916,0.10439272271220314
6438,0.015838202040983067,-0.012838809702132643,0.979010773332316,-0.34618182872470316,1.133335527712309,0.02815092398035213
6449,0.013209403160285254,-0.02305848282931001,1.0087904289723257,-0.4382866468018125,0.9350870805356641,0.017868858160739957
6460,0.014604965360346426,-0.0115448312938221,0.9937126517750943,-0.39654284757885694,0.9227570002576517,0.18882960052287084
6469,0.011999297459877455,-0.005676278265770511,0.9964797582963906,-0.5657022860076635,0.7466355037142623,0.07190084826709348
6479,0.01076459452933182,-0.014670950946435949,0.9876014923360144,-0.6260090867676311,1.2261311323097557,-0.029650702787254055
6488,0.012966583811904665,-0.02756278974193611,0.9814806750871664,-0.869172637540932,1.036564838804904,0.2538264158392355
6499,0.020539746110400395,-0.011628181631959816,1.0052360747334703,-0.5598453110256117,1.2972931932819314,-0.008138079276244931
6510,0.0114998249187084,-0.020081216545104277,0.9924244592487461,-0.7929350884885963,0.9382693946024512,-0.036418605941060375
6519,0.015547401747277617,-0.020959988326213194,1.0044410749635448,-1.0434735118958933,0.7410181172169356,-0.11944204231652594
6529,0.01635623688266491,-0.014765801349446678,0.9829508714830713,-0.993695850065461,0.7666791184739175,0.12827195054850166
6539,0.025713325303195433,-0.02913081639569596,1.0041289288732627,-0.6466343742230601,0.7985898166335185,-0.0748635015874926
6549,0.012891563970623073,-0.013835300281461873,0.9837176024090347,-0.8993998410279221,1.0126455533880305,-0.09392005352241561
6559,0.005652727985750413,-0.017009009052006464,1.0096781769583947,-1.164969503255078,1.0402904932550956,-0.06813072008650993
6570,0.009480363335722256,-0.02414610375160882,1.0053579536079373,-0.9341959431369016,0.8637588075742116,0.12972851708896654
6580,0.016869230464522864,-0.026575482039004183,0.9834398680001771,-0.7582930506317652,0.920331945635288,-0.3478353678966832
6591,0.007769641288248041,-0.026735108077891586,0.9945335152278665,-0.9781055799856805,1.1356463444693294,0.03499860728995095
6602,0.019047514590775427,-0.011745485670384782,0.9999887546433568,-1.2104667269780052,0.7319827477617085,0.040517723211820504
6612,0.018247833182510668,-0.02032247518456142,0.9864218924363483,-0.893602416590488,0.9266335210356623,0.05846926347976575
6621,0.029513336349729274,-0.014086015898761031,0.9944425524830182,-1.029363858114861,0.7634596485345175,-0.16182316016677137
6630,0.026144211091086552,-0.012869072800228275,1.014522904026736,-1.090912070585783,0.8823198824483374,-0.10231430623680046
6640,0.009891300158694381,-0.01772745925113898,1.0115699976363643,-1.2679097736205893,1.0778562775633032,0.27421210857744216
6651,0.02288662143946346,-0.01363121632432459,0.9903382382222455,-1.4014892205023957,0.5173152352835383,-0.07146064865945351
6662,0.009269399878732449,-0.02184331452708113,0.9928693160309313,-1.20101780751693,0.8715905578275193,0.06864652165444546
6672,0.01973567249650182,-0.015138802831548465,1.0183818057307863,-1.2388397345865045,0.8185778705476194,-0.11244426354624462
6682,0.01254983944314915,-0.02087781522187773,0.9832380681376931,-1.2427898811725826,0.5938834055202443,0.24328825173716456
6692,0.012639838577373198,-0.02412231151293809,0.9938297026350023,-1.3183282668844931,0.84223272377644,-0.10847954841932242
6701,0.024135940426358322,-0.01182857114604456,0.9924976938083266,-1.1724688714658578,0.6536441378799149,0.15659808702667738
6710,0.01089283213739679,-0.01954080660072471,0.9883441074448168,-1.5145836509052508,0.6176465953767102,0.2148527753244119
6721,0.02153886879954241,-0.023136933564461004,1.0038418144370458,-1.4341058680785232,0.5704171855559876,0.20693890322792602
6732,0.012073815430770782,-0.015748498070875645,0.9912178292401863,-1.3426382602913673,0.9285579663160611,0.32405713986916634
6741,0.020235263870146757,-0.015613516682340038,0.9980931371899628,-1.0511005930290171,0.5884194330992817,-0.1080782701594528
6750,0.02261157389660015,-0.0171428288102386,0.984605506225516,-1.210733479444488,0.4022118997846871,0.0014568933590349074
6761,0.020004132900521797,-0.02142326043489261,1.013648422265006,-1.8047285117124803,0.9016629858992629,0.08943702065703577
6770,0.015549767069042366,-0.017626767346254606,1.0060150113832433,-1.499586445635305,0.5388551101139838,0.01618859158933353
6781,0.018313995063506387,-0.007780238551942712,0.984681113571712,-1.3061140837500607,0.7613685288512866,0.03484585410567727
6790,0.0038930611349912506,-0.017894210001347215,0.9850941282821178,-1.3799263723903268,0.4615738390201299,0.12254416175132857
6801,0.016420900578471644,-0.02375136502494628,0.9951413671720974,-1.474413602759554,0.34263684575428544,0.014871506802763845
6811,0.024740167080039427,-0.021620218173924476,1.0009840616306522,-1.35698851126058,0.37378613760919754,-0.09850440070565751
6820,0.018592826454429175,-0.02111223898593016,0.9940796189748903,-1.3700356895989665,0.7357238737902603,-0.03849921811250605
6831,0.009619571745366595,-0.013192339988267672,0.9970083697707113,-1.4071197900570407,0.5054724551954243,0.054937432199175414
6842,0.00877269879557975,-0.002478698238767991,1.000211277565801,-1.5476737834431844,0.3666454639306481,0.06835317689492675
6853,0.015855238612791894,-0.015672335097967595,1.0030727246267326,-0.9216808712777412,0.4986110808604684,-0.244834222404611
6863,0.014545194047650405,-0.013690827199184524,0.9884516792955695,-1.2659191185730039,0.39943092424977983,0.042579183662721294
6874,0.010181694957493933,-0.010482669603175353,0.9978807387388734,-1.616045440403176,0.45109929883619515,0.12780291384064257
6885,0.0035436498562751075,-0.009505403635988821,0.9838447341158167,-1.7273881407157825,0.49042398397531445,0.15609406835707815
6895,0.011690977226850098,-0.007187876026110821,0.9997452779038611,-1.493097253792231,0.21392683249226171,-0.11166127620781664
6904,0.017391348706464513,-0.015095532966490854,0.9908588058605545,-1.2899178105114095,0.2921632203225746,0.04899892458553674
6915,0.012892253294312048,-0.012741551336613397,0.9930597515009898,-1.8111292360216578,0.3948170861702954,0.10084735225524603
6925,0.009334037012121396,-0.011083736733589195,0.9963243787355753,-1.5099389739598903,0.33702619831203706,-0.06802652949796277
6934,0.011963325329079903,-0.003170298189880628,1.0105850396508222,-1.346337559768752,0.4171037862529684,-0.18819347111418877
6945,0.0047352870665607425,-0.012700361749564338,1.0067291819367092,-1.451868108589433,0.2381440088393939,-0.023851498942700146
6954,0.0024400520013342407,-0.016981313599935252,1.0055409888659403,-1.6870339045541345,0.10553860677173012,-0.10875131131557889
6965,0.012851542327975859,-0.008731136714491331,0.9893196019607593,-1.2564514871801284,0.2758697290190255,-0.10551881090640512
6974,0.0064535365565288405,-0.015638455464283656,1.0061548795860773,-1.4161203287873758,0.09633209386750814,-0.008463217843704776
6983,0.003536848295089676,-0.00626894395619867,0.9925386711852333,-1.5008848739975151,0.08172023784281543,-0.06673111065415872
6994,-0.0018541498866608075,-0.00787879610043245,1.001338961591778,-1.7290391946105232,0.006335175341635163,-0.20778854122348
7004,0.007347740541620285,-0.006300802143771673,1.0042917141649295,-1.2764812130226262,0.06747638630681717,0.07504953285440998
7015,-0.00011078077974843118,-0.001920012518279858,0.9877143165200241,-0.8837724882515485,0.019794800862835818,0.12899864396659652
7026,-0.0039008783640252505,0.0005687109683418685,0.9900023943254466,-1.6010528358116263,0.1616290971681897,0.24900997370179334
7037,0.0021919223655241394,0.010663303754619057,0.9904826651255877,-1.361608278723259,-0.021505857099190284,-0.4233325838693034
7048,0.004324440071509885,-0.0010957137931278096,1.0008861054086504,-1.4281106539019799,0.17958309351888704,-0.01021266527189669
7058,0.010049003304606187,0.0005572224893080102,0.9970284887551218,-1.5498536833956793,-0.21945353473903617,-0.06326390854398575
7069,0.0007482541514304059,0.0011734019234500978,0.9966367321754862,-1.2992367051717317,-0.1781430235697279,0.14691749579621427
7078,-0.00091887546817159,0.00484997383907924,0.9882765223881796,-1.4831341199091723,-0.00254313799956166,0.058874907720154766
7088,-0.0007312637625187798,-0.0016760503744963943,1.0070046807887851,-1.6282971691394328,-0.4262484061216181,-0.15089776398910534
7099,-0.00329181572413765,0.0009486365025959589,1.0035136728757919,-1.5212487197834719,0.02416758846608641,-0.33265970118928473
7109,-0.008539415756579054,0.010212784712701357,0.982586448167451,-1.1193520112046482,0.01729137744199137,-0.07850942385870899
7120,0.002638498204306022,-0.00590633453902115,0.990572753023336,-1.5116745463233863,0.12720901879365548,0.061001325916424404
7130,-0.0076212105171175794,0.0033592737929675556,0.9929370388999541,-1.2838571069044877,0.1856405748344323,0.0759321085389815
7140,0.002585840811346202,0.00320349809442494,0.9961316027173658,-1.3014235650558716,-0.46209789278146973,0.10930482044425247
7149,-0.00492313650562482,0.006829483166132255,0.9971348419671974,-1.2708818623204852,-0.228121089866305,0.037440344612302154
7160,-0.014241276506978639,0.009095558262539251,1.0008649785522268,-1.4481145011289296,-0.11756126235518319,0.1425308326153438
7171,-0.0056677710044973515,0.013220719653786104,0.9993237980108153,-1.3450420854298193,0.1084517184953668,0.11302647604665378
7181,-0.011304531861714305,0.0013132184379171276,1.0078550444584484,-1.0380123357043485,-0.30909349136273423,0.0730404023335133
7191,-0.010326488945415508,0.007320800542676208,0.9899897267895682,-0.5903952126747417,-0.6953842849327108,-0.3041871395766306
7201,-0.013958180417489828,0.0047776618927574555,1.0064812704707107,-1.1908578317538796,-0.3077661967557789,-0.08025255735721858
7212,-0.009385233900748385,0.007251201700422939,1.0229735554153043,-0.9323494517343451,0.07817618660003733,-0.13430217209792333
7222,-0.0038534584601938697,0.010450726615142744,1.0083698660044116,-0.929566428822891,-0.16647951319589707,0.014631703241356448
7233,-0.01073371245104874,0.01652829840246428,1.0000281526294112,-1.2933516778008178,-0.7695504042435615,-0.32681676148906463
7244,-0.013214660533542949,0.010125532925570079,0.9872025388336584,-1.1580089051615545,-0.22599542077623805,0.024732546135853562
7254,-0.01115638186990999,0.018943064620661084,0.998508973351228,-0.7612386776647058,-0.2925008057466163,-0.018806147963338227
7265,-0.015450892020919805,0.021866507891051934,0.9893016714028081,-1.28902355979009,0.016352141522997743,0.03605909727158065
7276,-0.02531908015142482,0.021888205979179433,0.9842949439199997,-0.9360199755929406,-0.21348890294519388,-0.09809262200610024
7287,-0.018482572212130118,0.01267565155295803,0.9889324466138548,-0.8871122920799525,-0.3857693541921701,-0.0139573666534015
7296,-0.012019939949305267,0.011749224973349057,0.9835157367091769,-0.8378734214432143,-0.13762341185547933,0.026235984570683112
7306,-0.01885611095640824,0.011627377329021329,1.0116853352550503,-0.8598907288612382,-0.3508668592178392,-0.1946115607959053
7316,-0.009626285640249609,0.008851460479616389,1.0125068923917626,-0.7493679206183816,-0.4965198125632356,0.08450197040499517
7326,-0.018325752119444448,0.013344116685615958,0.9812206477606278,-0.42116498969250316,-0.7056042604171596,-0.13648727114105833
7335,-0.023164070638740944,0.01875424250236791,0.9922527267052808,-0.657795294593588,-0.6802486343377208,-0.10070195829103143
7344,-0.017106310424842713,0.01851926795538919,0.9826581825802733,-0.7975552285921016,-0.4116484099019862,-0.09802143454518214
7355,-0.009406894068334405,0.009804672786089996,0.9801851972166835,-0.4823968200415777,-0.5052925324582556,-0.21746697390128458
7366,-0.014774020641913656,0.014561200725337854,0.9771997311187214,-0.8032988221525916,-0.43170754887416085,0.08879412899441706
7375,-0.02004263453660391,0.008630062758506462,1.007542877103265,-0.7421705891720567,-0.7587804392585189,0.08587220121385501
7386,-0.015447138598254886,0.01579939358716102,1.0008642775794339,-0.6561784050315187,-0.4578744262733943,0.23324729008949488
7397,-0.024403107698219875,0.013203264091884768,0.9897495869893649,-0.6990624807786814,-0.6051103145865481,0.03423970144142613
7406,-0.02166909253869007,0.01277778732425227,0.9863769161213315,-0.49650442530425126,-0.6705221753001027,-0.14105916213496442
7416,-0.022388582471482205,0.018466604249465918,1.000893348359685,-0.40897854556131086,-0.6370836760250372,-0.025982688074701287
7426,-0.01642560853125176,0.017485542922653856,0.996805930517322,-0.5396486182127262,-0.6203250571694202,0.0898588268075056
7436,-0.016003100314762885,0.014513900219207551,0.9949851974669203,-0.1878154426054929,-0.6663460853664464,0.15278780667157987
7445,-0.027219388295934104,0.013159185986535378,0.9981364974239071,-0.5489882112781661,-0.44199223986680536,-0.07291355066059528
7456,-0.030079547295663013,0.01761225115018351,1.0027879935611168,-0.5480820300528333,-1.0570616482293425,0.08412261579977305
7465,-0.017296664596502545,0.01677280022534031,0.9720876543500985,-0.41434389157362617,-0.52033761214698,0.03625331845558982
7476,-0.016810055421067605,0.01879353136804897,0.9807072163851499,-0.08429607956564575,-0.7032832133243697,-0.12174135854739847
7485,-0.025999199075728393,0.022892868123831903,1.0113621867763716,-0.12385850772261159,-0.5039942210555561,0.22004933736950918
7495,-0.014851822364007148,0.022948388923272483,1.0056676272167835,0.07225868760142876,-0.5550880437286528,-0.11623064861965485
7505,-0.024381877067126696,0.022694814002190027,1.0057731868803836,0.11053235197261141,-0.797401428224715,-0.09798466600908347
7515,-0.01580632358113524,0.022307010486383345,0.9906188037984839,-0.3464678119969394,-0.6115739624167094,0.20911056977445036
7524,-0.015257676633743899,0.023562954436349585,0.9920629258833148,0.12549889601595984,-1.054147407363069,0.1766773285752091
7535,-0.021386322878900788,0.01808656719327557,0.9971520491554452,-0.03672750311319868,-0.7171285414728836,0.11913763797232395
7546,-0.016928756402838443,0.01773645959385551,1.0105282638613906,0.2932459065343883,-0.6534189844923658,0.0407867989027603
7557,-0.01791702028277867,0.014568173846432733,0.9964960793295925,-0.006973341154457038,-0.7375118092104848,0.07430891848546665
7568,-0.018129633465386576,0.019131834981831262,0.9882502600744116,0.10908188178346657,-0.7441640358048582,-0.19204975571876817
7578,-0.01735238897738399,0.02648537987265733,0.9898443054731128,0.17418814931764892,-0.613721252026473,0.09717209133394163
7587,-0.014544125648080743,0.01703028328674428,0.9872049601080515,-0.09136057748776014,-0.8271630350841558,0.09252228791527915
7596,-0.017946749421128286,0.018527553520795815,1.0090027988516823,-0.025712060451784202,-0.781369330530853,-0.10746989541375161
7605,-0.011836066088653221,0.02110469513873331,1.0065066122152886,0.5121612161692899,-1.1135561055692835,-0.1478503247806331
7616,-0.022065524161236093,0.01653939034573277,1.016263449564026,0.21400637570609665,-0.9233446795798489,0.031195713747543652
7626,-0.020528459043260165,0.028755457230876795,1.0072023515742463,0.015873430492821916,-0.8572923438787265,-0.04578358075671219
7636,-0.010201977625768898,0.02474324256139627,0.9981298172993984,0.5990741970431785,-1.211337877347468,-0.03569464130920808
7647,-0.008652428368919846,0.021063859009561037,1.0121670211901725,0.36537281988940273,-0.6420567223714471,0.12599133358625536
7658,-0.0007227660836688111,0.012559009523749292,0.9968276391147928,0.7033300459913483,-1.0232258664026455,0.16738158743711276
7669,-0.01508503206342711,0.020268526844073795,0.9888150028075108,0.3831588831010005,-1.0898067906712052,-0.1287420278402711
7678,-0.01023466277630538,0.01548617014663204,0.9983493008559177,0.6348851608554644,-0.7739452230275989,0.11344256010663106
7687,-0.012655286878572375,0.014243200618508738,0.9922503179006373,0.4023675565730984,-0.7667529578359489,0.03923292849460753
7698,-0.010007560643205068,0.024237661147789004,0.9971799133872481,0.43532790700115354,-0.7978381580173894,0.052408262826564855
7709,-0.011207655753954649,0.017399052451127262,0.9964146724874695,0.44754948997038846,-1.0025769102449387,-0.20485182142076314
7718,-0.008731120847341243,0.013717772857551868,1.0113623132140388,0.2554807524129401,-1.1881690067996542,0.022271786988954923
7727,-0.013221100999059683,0.011689371299058494,0.9852873731425951,0.3740746427748476,-1.1437667231583772,-0.03119575528228741
7737,-0.0074946745641128465,0.015089235178041262,0.9872111665382985,0.6757663283586023,-1.0837477779587557,-0.17182530217045672
7746,-0.006400809239781329,0.02280484232030975,1.0064084042061439,0.3409669243063734,-1.297101776068658,0.31543526201965805
7756,-0.005183024445046997,0.011197133510426314,0.9912451834063254,0.9463425889607824,-0.8433998264758071,0.1767738872296139
7765,-0.015232119135427803,0.008995640976654964,1.0001512679265148,0.4879067017227108,-1.0041977399438655,0.034949332788430945
7775,0.0025381378902636052,0.01947325782049542,0.9869890163227217,1.103615550311017,-1.06679627704567,0.17313817235773485
7784,0.0011496243569968203,0.019414801311956876,1.003842392673036,0.424223144679727,-1.0323906936866525,0.011662443399584351
7794,-0.0023607697342672668,0.011614327286540238,0.9938338353765197,1.0843164226993072,-0.8717593529392526,-0.09207819806985565
7804,0.002324976776957384,0.020674708742532362,1.0103273589329038,0.49615105203967746,-1.0424331619844036,-0.0717105426930714
7815,0.0017155926451394863,0.013287202044368483,1.003277061389689,0.8779044331800137,-1.0194005778408741,0.04175031855630087
7826,0.0008865740826752462,0.008324272256401598,1.0035792348531454,0.9240895906448947,-0.964852254538484,-0.24689220238696663
7835,-0.005338912288920405,0.00904976375860201,1.006853028662475,0.8988299550221233,-0.9424264797795481,0.1129407654223909
7845,0.000345610165292673,0.0031335039450282667,0.9991694757293308,1.1524848262897929,-0.6205349722953595,0.24909182256297144
7856,-0.003226731772655777,0.009583129949955893,0.9948385350021438,1.2074859708538215,-0.8033319926710497,0.1818842259263397
7866,-0.0017776799243984258,0.007922623888847588,0.9920598022905509,1.4832120148063654,-1.0621590881546001,-0.01220662682884207
7875,-0.00569558006070853,0.010134537992551852,1.00261589754192,1.1559761581586576,-1.1115529385319503,0.04199319043599249
7886,0.008019065106097453,0.003650626433227183,0.9960080730681947,0.9399624722806222,-1.1086888259188874,0.10620948049549621
7895,0.0015447790699661605,0.0002932677850102875,0.9736225604498043,1.0510048684654547,-0.9885584754298598,-0.16783563811614025
7904,0.011487066134451832,0.011949667050876668,0.998564260481853,1.0988658226674364,-1.101534960697792,0.20036442939966978
7914,-0.007173910198912231,0.008591726841773003,1.013166521651067,1.5412049034337942,-1.0024182675882096,0.14238720456577872
7923,0.0031489275418551633,-0.00124212841803117,1.0049916032128954,0.8254273625896387,-1.0379507728069597,0.010759649589434315
7933,0.010547151869824852,0.008862331734427782,1.0046101263665885,1.1139238307624901,-1.1394094380887145,0.15967756264556013
7944,0.014407329843989469,0.00999132874059452,1.0025716635947242,1.100598479520499,-1.193288440081565,-0.214653926453271
7955,0.001381487410554945,0.005337706494030934,1.0005360515526345,1.4411380458000695,-0.8554853581804893,0.14477324951479745
7964,0.003572221814989747,0.01084441631708364,0.9852688152236007,1.1193557066196058,-1.2991652599637997,0.1042813267159133
7975,0.008247779424011796,-0.0004963712940621841,0.9920640796988639,1.0414924259146818,-1.0611189460111143,-0.27744806518814513
7984,0.005272880644643494,-0.0012492306588508775,0.982521808660587,1.2177757362484154,-0.7428237470235337,0.3351551702594813
7993,0.004355798035203515,-0.0031993364680891314,0.9847789793850303,1.1476591257068498,-1.0961356876290285,0.19084170841007095
8002,0.01892585026400765,0.00556785269340675,1.016413879300431,1.0912340729972363,-0.9590193360725223,-0.0021740421086474905
8011,0.008834658892191547,-0.004649261323196487,0.9964348944546297,1.6529315568995664,-1.0794019244436082,0.033177118884482215
8021,0.009655601788814243,0.007799453192245966,0.9904095236061388,0.9949518081504822,-0.6514438057045073,-0.0924475758535877
8031,0.019605782455404473,-0.0017313652863401336,0.9908628203054376,1.2586150584187537,-0.7127053924499885,-0.23996241950918756
8040,0.009249606294476583,0.002693731849210265,1.0147293047619383,1.525845176530526,-0.8504360891209678,-0.12777064852427564
8050,0.01655677519694062,-0.005325121415319209,0.9970390037010605,1.2437422816176968,-1.0056915193002882,0.13406300225612353
8060,0.01151572973796515,-0.0018840138469276254,1.0025330434431892,1.542534583603851,-1.2782762132466345,-0.09855077335324225
8070,0.016760207173199256,-0.006348213864940492,1.0148901283411216,1.4503172098102148,-0.856815739201975,0.04324317564481713
8079,0.02209140572625882,0.003684058164034965,0.9851503540877428,1.0081256286455988,-0.8289690709888721,0.06139400948539976
8089,0.022906293949038852,-0.013286230893285015,0.9922348262660439,1.0360206662021176,-1.0489292679722553,-0.11546345057442788
8099,0.01143284509820346,-0.00753544443332183,0.996060559224245,1.578817372476486,-1.090315817845744,-0.12033757997964031
8110,0.017575423917414974,-0.0005956965967352538,0.9893514903561214,1.6177700167595344,-1.2427914816771748,0.30788163173832706
8121,0.01275725557682701,-0.006663164887436344,0.9776336541080501,1.2426904511208272,-0.5771337314318026,0.11705323431496645
8132,0.03219948041366336,-0.009323233033770606,1.0020175438102168,1.2738784066549318,-0.4789566906343453,0.14873204065004575
8141,0.018450922217591585,-0.0013403555564588162,0.9923320002966607,1.2418655790436208,-0.939918772310288,-0.1709311839698391
8152,0.017952674367169824,-0.007532934729376983,0.9903718553389227,1.7877701966633548,-1.0627939824433268,0.03495528389686759
8162,0.014852110454090614,-0.011654596704881722,0.9833773327482789,1.9402158429118619,-0.8496829520942148,0.08728323463621225
8173,0.0264982847570846,-0.014154911770793204,0.9981429122015234,1.244986096465129,-0.5934919159746593,0.06391877179919066
8182,0.01277914022191726,-0.014018972649902274,0.9957590318371391,1.8149627986557284,-0.5654701333457335,0.029483826445939595
8191,0.009747802850274047,-0.011632731192556258,0.9990716560561073,1.6025752033881093,-0.8577043453296109,0.2907042894582084
8200,0.01928612423378955,-0.018573739016495085,1.013845521843423,1.3198327278733153,-0.8737826630058808,-0.12128589449384303
8209,0.01922456258345742,-0.004511407972647296,0.9821566688931058,1.5260993624114532,-0.6397405531990796,-0.10479047590241454
8218,0.026455025873022488,-0.014098254430567704,1.0083047736271233,1.145091650706115,-0.7429009665583731,-0.15479554506558676
8228,0.020351663851351662,-0.007864258387747127,0.9955329749250246,1.3785317695845025,-0.7510775914243024,-0.13734009605205683
8239,0.01915481263914375,-0.004560733177116952,1.0105655898258732,1.5489081000986369,-0.9428214123464371,0.025382820266215828
8250,0.020775477632331216,-0.006753266402397763,0.9939832621768658,1.5681587788212417,-0.9121287224717761,-0.030459459794182468
8260,0.024868450710805453,-0.017165397366429507,0.9889031024791709,1.0003384169786083,-0.7117172893888712,-0.03960916624392849
8271,0.01177924558739376,-0.024746242770866157,0.9796555980373713,1.6365983150133845,-0.5581865453469244,-0.1052801676438414
8281,0.02105132937506069,-0.01929791145792508,0.9903996390317213,1.328473103519387,-0.7242606069251465,-0.09953532320248192
8292,0.016878221991237615,-0.017851241852094454,0.9920078653857196,1.689844932894433,-0.5328245013158607,0.17090727500203393
8303,0.021367763931245256,-0.01643315940321734,0.9896426839571322,1.5447434272919194,-0.6965366646708364,-0.12829909882834553
8314,0.01859906124017549,-0.013730743588969736,1.0043433455569137,1.4144063711608341,-0.3349276035783259,-0.0826467648415558
8323,0.025861715351577032,-0.01942803738912067,0.9986835316870774,1.2913558819711621,-0.5259522111549765,-0.06208552414002774
8334,0.019420652567843397,-0.024802791219909224,1.0020970345122162,1.2521246771745058,-0.4755717000308543,0.06141345479209379
8344,0.007025879137823179,-0.015494245150846625,0.9854435714510087,1.01087838112641,-0.5918203822000586,0.1561265721774138
8355,0.018702541973716725,-0.02261156227597801,1.0020600111295157,1.4060136942152193,-0.5052858321176544,-0.14522884512031278
8365,0.021665102399324523,-0.018588691621097095,1.0024064723799027,1.2064037398939944,-0.016395315852844372,0.17656266598862136
8374,0.015050249908358047,-0.020713721340092302,0.9944331421772068,1.3112601971451547,-0.489723952775267,-0.10457191768887432
8385,0.021254846931619595,-0.015615750069291088,0.9998495002441826,1.3380975253988423,-0.19562141888485468,0.10356014763164681
8395,0.02240906356785352,-0.01846894878236391,0.999761202704718,1.2583263196352774,-0.276112762440355,0.03515043488202845
8404,0.012823073917264198,-0.029632707783639137,0.9892630035616907,1.1379001520397702,-0.2376022621527824,-0.06423350310236323
8414,0.009045579494232805,-0.014904870351638316,1.0014540351589414,1.1549770458262614,-0.40586494714878335,0.14606453645638554
8425,0.017500298757428378,-0.024856512916709657,0.9786724442452001,1.0094474592452558,-0.6070888144644844,0.17589343047601666
8435,0.030624476562749137,-0.013956640188927881,0.9942539355531188,1.0261731485484846,-0.28721922704275055,-0.10892649660278496
8445,0.014301843766204622,-0.023974514573047216,1.003691651164552,1.3981855999367196,-0.09107508544891957,-0.04470779232057383
8455,0.00989762702010389,-0.029956041135375186,0.993567744041425,0.9924631715447704,-0.11665762365253624,0.10792452407844356
8466,0.013285455861126899,-0.01871866906048684,1.0331079152862614,1.2094211274544797,-0.3255067496660842,0.14844780485602194
8477,0.008443162801858289,-0.024610125233365136,1.0178350862553958,0.9947799351325627,-0.2834887869650308,-0.005690234008573851
8487,0.019712817866258496,-0.016960563742184735,1.0048350971262188,1.074785106714803,-0.19587088826372723,-0.20837167948225024
8497,0.020180974398739993,-0.02369017461892261,0.98399331615092,0.9461106644004041,-0.27267498729860307,0.05767045481976884
8508,0.014619267535290574,-0.014268931087105526,0.9779983454501712,1.0708226797704439,0.03837679452209525,0.06618274101553065
8517,0.016451495360933845,-0.019228530837465518,1.0153130699159516,0.7556889820783599,-0.01719189516039188,0.11833965754580847
8528,0.017105711305413683,-0.016161474372520794,1.010130781769857,1.1096108481653424,-0.27490292452066833,-0.035978175229177616
8537,-0.00020683103230263906,-0.015583578860306114,1.014968618226853,0.8725288869922293,-0.448775477074939,0.3656170352214039
8548,0.0029259086560941387,-0.020774634842517847,1.0067559044290353,0.842477575883583,-0.06332547780088069,0.026158119960783748
8557,0.00847425275025545,-0.017484996684004758,0.9867040175347245,1.0022064787334488,-0.36695594259818864,-0.05308337557358958
8568,0.007853318304369453,-0.01860902725900282,1.0079076503658073,0.5854679734364157,-0.13613605263568238,-0.02622440828100833
8578,0.005387491449149551,-0.018698542717235665,1.0140065739738273,0.6388773873078677,-0.25831573179362044,-0.06806814859082908
8589,0.007040309247462309,-0.026799366960952038,0.9975924110052803,0.6164725885637927,-0.25593051453492127,-0.14051794917650537
8599,0.0034253070981156274,-0.015415860076018594,0.9951738364159777,0.4592786881284597,-0.1369945297967016,-0.20205231301017199
8608,-0.0035870104957373564,-0.024530837853654397,0.9994479053529506,0.6965020964922333,-0.05370717234820209,0.0746964836109308
8619,0.008500181621029517,-0.018968566222305527,1.0191359092324295,0.197066192192692,-0.2639297421669571,-0.007936687178603455
8630,-0.001419303801623497,-0.021011520983738128,1.0061805441171061,0.9412221551404907,-0.22696878681732605,-0.36238090610956475
8640,-0.002999402527077961,-0.017253733781330254,1.0029472172768685,0.5407483185769841,-0.0889504485949568,0.07751482538215097
8700,-0.012603808413937476,-0.02199928545811727,0.9955055483093794,0.3854807710421568,0.35590083033397846,0.060279174139273424
8709,-0.004223879852080005,-0.020174325847162857,1.015834005386202,0.6083458047538737,0.090884185360707,-0.19781052768251375
8719,-0.013504106986123181,-0.01005449257377564,1.0058063529241805,0.20246187719167735,0.26929321815507606,0.06881658863358428
8728,-0.0077186623572277875,-0.023727028953158355,0.9949902161999273,0.3549989639628692,-0.050079221916150884,0.03129647499289543
8738,-0.0006554572080174903,-0.004107011791575424,0.9904944215671398,0.2736876237245924,0.40482833122450185,0.18087580173475504
8749,-0.0109909893444802,-0.009527078041001492,0.9986874895064064,0.22138023887843808,0.07004339699576662,-0.05090887197722077
8758,-0.0058356125165791185,-0.016579251239009454,1.00435951136866,0.3054743848765775,0.4407050024842072,-0.1335925892904167
8769,0.00047651392403673387,-0.014718406140189134,0.9888119719283255,-0.01670408447910282,0.2825488300467662,0.15325414432060389
8780,-0.02712162021019693,-0.009817766115916445,0.9840202663439914,-0.14559690682346313,0.21855785164303335,0.23867463393932453
8791,-0.008771844828945023,-0.01302179324786828,0.9935037584210249,0.07742536793498558,0.7328802362351039,-0.15961006851621876
8802,-0.007937961669504097,-0.012781202034934904,1.0296129327288843,0.14816431826856596,0.2949837842149556,-0.17673031395247837
8812,-0.018341229446921195,-0.010199578078533904,1.0055144500584359,-0.41265801833159466,0.1966435990176105,0.032755643078652856
8823,-0.013255373651583685,-0.01611492479398677,0.9941599322714175,-0.02180008407582032,0.26595101791066206,0.08613752113172828
8832,-0.006531283981488321,-0.007139771548616504,1.0058354866805341,0.05549177406156869,0.1364862179132893,-0.08497809661763168
8842,-0.017153387850727606,-0.006649199654109901,0.9981439168983332,-0.292809536848071,0.5884533100171988,-0.15211266500048623
8853,-0.02172039912264538,-0.013954067463860603,1.019107548907264,-0.02944209349410909,0.3886888871806101,0.0335565343142692
8863,-0.015457280254998042,-0.013681380268248448,0.9900494577618272,-0.4183518719925322,0.5133098391788788,0.21968215731999213
8874,-0.010157009467376235,-0.010793165678344435,1.0226936490223304,-0.12616148494105878,0.26141082547097577,-0.2793393281562479
8883,-0.02069741717137246,-0.0009055297687688936,1.0092405999688225,-0.2734659028508516,0.2816426181189187,-0.18799211208471583
8894,-0.017881491580028993,-0.0072175787624099395,1.0073331236848044,-0.37951996597618454,0.6600624083669704,0.11202345239233508
8905,-0.012098867281255657,-0.00886202143801067,1.0003372842250853,-0.740310225007937,0.3235493405810771,0.28956351600488833
8916,-0.01959254626567288,-0.006143450401181239,1.0084830028086291,-0.37027061435640796,0.28174204057596675,0.015857075198525142
8925,-0.02424608940654377,-0.0007515676360458296,1.009776349565027,-0.8552682823508857,0.3576888263431123,0.042713500438055954
8936,-0.009976659901506004,-0.0042298065367161256,1.0034332371372394,-0.5394780789602487,0.7312519676517076,-0.10426694491097944
8945,-0.021225788181754607,0.0014209693410296407,1.0038648677918387,-0.5650643692670239,0.6236349332134455,0.06288254074662945
8954,-0.02922631567164394,0.00026591419272675845,0.98606919644868,-0.6120427672936537,0.44690915639466644,0.38194188690582026
8965,-0.014131021731870587,-0.0015933672474897592,0.9856569037054992,-0.45609232798283794,0.7344752914910323,0.01306783478416922
8974,-0.01694407306451133,-0.001259220546998135,1.013608415255601,-0.7374133581239413,0.464632674255986,0.07240495553821905
8985,-0.018323306498792987,-0.003522531408495453,0.993800183657867,-0.8933978098760805,0.4263192245291031,-0.04978145993424444
8996,-0.013830530357141721,0.009327994813786804,1.0036641312686096,-0.5808089564224528,0.1254027160533423,0.039399891834861804
9005,-0.01744416498743917,0.006697759030009746,1.0133629713861765,-0.8225191956315736,0.7994316122917549,0.15729151120096804
9014,-0.0105214879773082,0.0024014165563780755,0.994793951870935,-1.0535939351285006,0.7651061901116158,0.09085476824225279
9023,-0.013455190088419597,0.004333783767246675,0.9910476137637145,-0.7350989611165198,0.7813039718780515,0.2258082367181813
9034,-0.02187362686576948,0.009489898051436343,0.9913057353158602,-0.6608336610445276,0.7982658802742316,0.10839900872415804
9043,-0.024836778862942447,0.009195657995456172,1.0067628797967227,-0.691848481035641,0.714458409771629,0.012583604799807337
9054,-0.025624919713177277,0.004871811597079832,0.9949632668408596,-1.034137718306802,1.1571226403255053,-0.2410851589725953
9065,-0.02429841015084551,-0.000508936598826404,0.9969618450391924,-1.3810533333713633,0.7004702004485553,0.06214438564311538
9075,-0.017487493063407782,0.006269878193868446,0.9918537960467874,-1.0161600949708887,0.4526056847003259,0.1666550994885807
9085,-0.02233012894733414,0.011956730612862882,0.9948743551478179,-1.0734193732270603,0.43394106469113114,-0.04323809592133295
9095,-0.018671057816478154,0.01105391519687343,1.0087955383917864,-1.2623307756992725,1.3167832780663646,-0.10769962855299471
9105,-0.017659886958273398,0.013782703691598817,0.9810705315361294,-1.3396178371911873,0.9611985416562472,-0.07724193557320035
9114,-0.020056796641530567,0.005032916911317114,0.9988179257642805,-1.0490373707812024,0.7165635045463781,0.10651198823853562
9124,-0.0171560035759313,0.009241844012627957,0.9984966463721802,-1.3102206463757295,1.18495768590336,-0.012585188269754492
9134,-0.014201053741967614,0.01823152355588842,1.012928862129363,-1.314390193270067,0.5095187368310882,0.14631412940631872
9145,-0.015068701534344218,0.013672089776415167,0.9801486956093559,-1.083927081351807,0.9212048623900468,-0.004652356549711273
9156,-0.01751022347789866,0.010345676578391146,0.9813191522294465,-0.9350341908554987,0.6400462855209998,0.09777803614080757
9167,-0.02726078117578385,0.00846626555630048,1.005923265572352,-0.8402566213577536,0.8130093935507842,0.16889062287899045
9177,-0.014575749608342672,0.009888509574497578,0.9896063194312175,-1.302519993605369,0.8935049657270303,0.0017622293830042352
9187,-0.018498750332532586,0.020840190703359292,0.9966325629358203,-1.3206087161066662,0.8059940963471566,-0.10670818708276401
9196,-0.02347241406411901,0.014849724785552123,1.000166275044617,-1.1604930074250055,0.7876581576448988,0.47544429946205513
9205,-0.01925617139540137,0.0121104873118889,0.989376873161075,-1.2530402951286697,0.889816362559124,0.22800250762050953
9216,-0.012817054102454005,0.01095432316703359,0.9997989054031946,-1.3376918372035338,0.8982701220320797,0.19767269668813037
9225,-0.018685645059439447,0.02502133019084998,1.0039350743604771,-1.2269391085351935,0.8916217549571333,0.154860549604261
9235,-0.009806215877828515,0.017381152350715627,0.9974309509160767,-1.3955982017549375,1.0260756624949363,0.1979467157457958
9244,-0.015694588466812643,0.014719017876543897,0.9961589127676976,-1.1928525956813594,1.1369888780914577,-0.2225450034744284
9254,-0.01563686912864027,0.009830522061710256,1.01085603539677,-1.2161295484253354,0.9565601673153811,-0.021650257615410014
9265,-0.013633072013897745,0.02574658613553727,0.9808307847899984,-1.145299107800093,1.0222376665161805,0.08984491201053502
9276,-0.01062884420160376,0.020768348556121297,1.0110023351028632,-1.563609509346111,1.0756313144326122,-0.15974645349059743
9287,-0.012287396733008481,0.010358969895212983,1.0033717139556013,-1.6085302469191844,1.0483085741948528,-0.037598356250102584
9296,-0.0047875884346543175,0.015540629851294445,0.9964194048598268,-1.247158957088191,1.1387330863352965,-0.2874528879816181
9307,-0.02218616246160862,0.016560546047834652,1.004003018614295,-1.2849077868062329,0.9688874814865015,-0.07532548760940665
9316,-0.006707002919594958,0.01652958713441816,1.0007590079498874,-1.3424862606920616,1.0317458616174449,0.044302320062176055
9327,-0.007425391822705806,0.01652140176652993,1.0114275126145593,-1.4282748761292923,0.8608478403498858,0.04152409739468183
9336,-0.005349958478436791,0.013346951214541446,1.0046872159310638,-1.4265904694799394,0.9828767756456749,0.05552803178442786
9347,-0.0038744471148580563,0.019476888505407235,1.0096681942105603,-1.2812782483967986,0.8740422073902203,-0.05241695239710853
9358,-0.0065780588216755986,0.02125889268127524,1.0135135301474232,-1.8722425466451098,1.1665286816118225,-0.043858693326321106
9367,0.0007640683193740555,0.01275147805812883,0.9910055271871506,-1.6389134557101452,1.329867840810472,0.11556610991345195
9376,-0.011678999878757972,0.018306918688767104,1.0059854018290524,-1.5162008157131486,0.9957154514865382,-0.01396782950005706
9387,-0.00018671165357054447,0.02185799808289099,0.984320000266178,-1.5015833991780352,0.8188457019987682,0.14890044589141627
9397,-0.003318946396771455,0.0178015575398524,1.0143211894575446,-1.9824963909234872,0.7849355201714694,0.08275041619654255
9407,0.009544022318281331,0.029371180457843322,1.0034485186754971,-1.4307380789404625,1.2221007851127481,0.1916846542196757
9418,-0.0024478733679994657,0.027766611972963724,1.010143888581403,-1.3844906679898805,0.8343301734304034,0.10978634793201568
9429,-0.004854251464464237,0.03264328085123305,0.9880733994257666,-1.4122677108732384,0.9007450906105022,0.28543315484467174
9438,0.007653268816358897,0.01166999189633957,1.0076539129118556,-1.9468692989425564,0.9780653442624465,0.017804396066178042
9449,-0.00041917794855846654,0.02005848025681169,0.9864365112649252,-1.3860003725347796,1.0945944286316873,0.042481206696844714
9459,-0.0019353341938848161,0.006904226686580929,0.9988637625639039,-1.9162373188992818,1.0906120642597934,0.12443610629419724
9468,-0.00011246490802404576,0.02549932428729685,1.0051093385934915,-1.4972544587555945,1.16527666308898,-0.2050841933635127
9478,0.005017862948923105,0.011201506952631503,0.9860223310928239,-1.673279390954022,1.1451907065039324,-0.3410125017786663
9488,-0.0017156362410560263,0.020586084615385518,0.9905009624188749,-1.3512188939199197,0.9302971948572769,0.25219634680304565
9497,0.009868403368816694,0.02344917700502077,1.0028721029460008,-1.0012290598317524,1.311143749350013,0.04557124850778079
9506,0.00521980880329176,0.019285108429401874,1.0058699753028983,-1.223331619347955,0.9078704741800143,0.11278416990523304
9517,0.008852171229835329,0.020197591034043616,1.0001727820736674,-1.801955672856464,1.0186731242910199,-0.09713891781170865
9528,0.002097817188359951,0.018906017176951697,0.9824336165592736,-1.5462977767456998,0.9422179103461384,-0.00713516144630728
9537,0.018960562155421856,0.018016224267358022,1.0080130578940092,-1.2924900533037602,1.105147664580374,-0.1294520643297995
9546,0.015564176708620293,0.01969671831016436,1.0054313073603582,-1.5623459853383954,0.9073503525614918,-0.16783914267022712
9555,0.008054604570426628,0.022731654404342994,1.0011404743773225,-1.6796372311233934,0.7126440873045141,0.01130358303352246
9566,0.005597744051499653,0.015333462159789368,1.0072478239972549,-1.5959385807655002,0.7790335626312129,0.11053621611708819
9576,0.00791278825301717,0.014385731451451101,1.0087050841907659,-1.4185390564204596,1.0144370960894584,0.00801903677907261
9586,0.007231182984243449,0.023873851715480718,1.02076898782786,-1.3089181192474415,0.8993595349190986,0.05703162648097919
9596,0.017797357291917427,0.016569395536276305,1.0070177423967768,-1.312682849344172,0.9586264063719606,0.1291445678530136
9605,0.014757377799002037,0.015515997218007716,0.9969302819660742,-1.1794841146399926,1.112075161416513,0.016464117363231102
9615,0.010922189041501178,0.011728560366125605,0.9895878710505971,-1.3529257776378203,1.1519179148196401,0.021598624664012845
9624,0.01915450790265055,0.015314733585950849,0.9899386901051191,-1.1519407904944314,0.9545732745885029,-0.06430337879414268
9635,0.016507270828491034,0.020923203563027442,1.005588177031674,-1.5724703517270577,0.9973229907448953,0.10959584154365974
9645,0.01754628402575627,0.021628309237219846,1.0039052373771722,-1.2911714502740714,0.9863966979352352,-0.08410434601025016
9655,0.03188680831406478,0.019308887169920852,0.9941576297627304,-1.1756942127633456,0.891931033865791,-0.06581974361100663
9666,0.02019208919618015,0.016416523439583684,1.0163925518835342,-1.0879502324493382,0.7502896793176399,0.01592889768612599
9675,0.014380842965320577,0.009984276763399589,1.003552916095006,-1.4167800298022757,0.7479188705604277,-0.024893885273122522
9685,0.01720924432222228,0.01895411110398047,0.9940410447877361,-1.41553328075901,1.0736680417426863,-0.14350437826259493
9696,0.02195034045600566,0.007387545547408297,1.0059021607308625,-0.6702694184590499,0.8454646121708256,-0.1681445420279199
9707,0.011321160977028847,0.010374659967625214,1.001278058191185,-1.3536335370775396,0.587979466789468,-0.0849897113580267
